soundFile,word,location,repetition,trialnum,condition,fam_trials_loop.thisRepN,fam_trials_loop.thisTrialN,fam_trials_loop.thisN,fam_trials_loop.thisIndex,trials_1.thisRepN,trials_1.thisTrialN,trials_1.thisN,trials_1.thisIndex,sound_block_key_resp.keys,sound_block_key_resp.rt,tone_block_key_resp.keys,tone_block_key_resp.rt,starget,Run,PartID,frameRate,ttarget,expName,date,
pi.wav,1,1,33,379,S,0,0,0,0,,,,,None,,,,pu,1,sllip_013,61.3784716785,2C,auditory,2020_Jan_25_1447,
tu.wav,1,2,33,380,S,0,1,1,1,,,,,None,,,,pu,1,sllip_013,61.3784716785,2C,auditory,2020_Jan_25_1447,
bi.wav,1,3,33,381,S,0,2,2,2,,,,,None,,,,pu,1,sllip_013,61.3784716785,2C,auditory,2020_Jan_25_1447,
pi.wav,1,1,34,385,S,0,3,3,3,,,,,None,,,,pu,1,sllip_013,61.3784716785,2C,auditory,2020_Jan_25_1447,
tu.wav,1,2,34,386,S,0,4,4,4,,,,,None,,,,pu,1,sllip_013,61.3784716785,2C,auditory,2020_Jan_25_1447,
bi.wav,1,3,34,387,S,0,5,5,5,,,,,None,,,,pu,1,sllip_013,61.3784716785,2C,auditory,2020_Jan_25_1447,
bu.wav,4,1,33,391,S,0,6,6,6,,,,,None,,,,pu,1,sllip_013,61.3784716785,2C,auditory,2020_Jan_25_1447,
pa.wav,4,2,33,392,S,0,7,7,7,,,,,2,0.255879878998,,,pu,1,sllip_013,61.3784716785,2C,auditory,2020_Jan_25_1447,
da.wav,4,3,33,393,S,0,8,8,8,,,,,2,0.290645837784,,,pu,1,sllip_013,61.3784716785,2C,auditory,2020_Jan_25_1447,
ta.wav,3,1,33,394,S,0,9,9,9,,,,,2,0.318964004517,,,pu,1,sllip_013,61.3784716785,2C,auditory,2020_Jan_25_1447,
ti.wav,3,2,33,395,S,0,10,10,10,,,,,2,0.30567407608,,,pu,1,sllip_013,61.3784716785,2C,auditory,2020_Jan_25_1447,
du.wav,3,3,33,396,S,0,11,11,11,,,,,2,0.209161043167,,,pu,1,sllip_013,61.3784716785,2C,auditory,2020_Jan_25_1447,
di.wav,2,1,33,397,S,0,12,12,12,,,,,2,0.189909934998,,,pu,1,sllip_013,61.3784716785,2C,auditory,2020_Jan_25_1447,
ba.wav,2,2,33,398,S,0,13,13,13,,,,,2,0.238498926163,,,pu,1,sllip_013,61.3784716785,2C,auditory,2020_Jan_25_1447,
pu.wav,2,3,33,399,S,0,14,14,14,,,,,2,0.287430047989,,,pu,1,sllip_013,61.3784716785,2C,auditory,2020_Jan_25_1447,
pi.wav,1,1,35,400,S,0,15,15,15,,,,,2,0.206048965454,,,pu,1,sllip_013,61.3784716785,2C,auditory,2020_Jan_25_1447,
tu.wav,1,2,35,401,S,0,16,16,16,,,,,2,0.103744983673,,,pu,1,sllip_013,61.3784716785,2C,auditory,2020_Jan_25_1447,
bi.wav,1,3,35,402,S,0,17,17,17,,,,,2,0.117698192596,,,pu,1,sllip_013,61.3784716785,2C,auditory,2020_Jan_25_1447,
ta.wav,3,1,34,403,S,0,18,18,18,,,,,2,0.126075029373,,,pu,1,sllip_013,61.3784716785,2C,auditory,2020_Jan_25_1447,
ti.wav,3,2,34,404,S,0,19,19,19,,,,,2,0.186856031418,,,pu,1,sllip_013,61.3784716785,2C,auditory,2020_Jan_25_1447,
du.wav,3,3,34,405,S,0,20,20,20,,,,,2,0.123083114624,,,pu,1,sllip_013,61.3784716785,2C,auditory,2020_Jan_25_1447,
bu.wav,4,1,34,406,S,0,21,21,21,,,,,2,0.0750031471252,,,pu,1,sllip_013,61.3784716785,2C,auditory,2020_Jan_25_1447,
pa.wav,4,2,34,407,S,0,22,22,22,,,,,2,0.0650901794434,,,pu,1,sllip_013,61.3784716785,2C,auditory,2020_Jan_25_1447,
da.wav,4,3,34,408,S,0,23,23,23,,,,,2,0.106291055679,,,pu,1,sllip_013,61.3784716785,2C,auditory,2020_Jan_25_1447,
di.wav,2,1,34,409,S,0,24,24,24,,,,,2,0.133955001831,,,pu,1,sllip_013,61.3784716785,2C,auditory,2020_Jan_25_1447,
ba.wav,2,2,34,410,S,0,25,25,25,,,,,2,0.206816911697,,,pu,1,sllip_013,61.3784716785,2C,auditory,2020_Jan_25_1447,
pu.wav,2,3,34,411,S,0,26,26,26,,,,,2,0.37580704689,,,pu,1,sllip_013,61.3784716785,2C,auditory,2020_Jan_25_1447,
pi.wav,1,1,36,412,S,0,27,27,27,,,,,2,0.226244211197,,,pu,1,sllip_013,61.3784716785,2C,auditory,2020_Jan_25_1447,
tu.wav,1,2,36,413,S,0,28,28,28,,,,,2,0.169120073318,,,pu,1,sllip_013,61.3784716785,2C,auditory,2020_Jan_25_1447,
bi.wav,1,3,36,414,S,0,29,29,29,,,,,2,0.291659116745,,,pu,1,sllip_013,61.3784716785,2C,auditory,2020_Jan_25_1447,
di.wav,2,1,35,415,S,0,30,30,30,,,,,2,0.255064964294,,,pu,1,sllip_013,61.3784716785,2C,auditory,2020_Jan_25_1447,
ba.wav,2,2,35,416,S,0,31,31,31,,,,,2,0.272412776947,,,pu,1,sllip_013,61.3784716785,2C,auditory,2020_Jan_25_1447,
pu.wav,2,3,35,417,S,0,32,32,32,,,,,2,0.288832902908,,,pu,1,sllip_013,61.3784716785,2C,auditory,2020_Jan_25_1447,
bu.wav,4,1,35,418,S,0,33,33,33,,,,,2,0.2541680336,,,pu,1,sllip_013,61.3784716785,2C,auditory,2020_Jan_25_1447,
pa.wav,4,2,35,419,S,0,34,34,34,,,,,2,0.32578587532,,,pu,1,sllip_013,61.3784716785,2C,auditory,2020_Jan_25_1447,
da.wav,4,3,35,420,S,0,35,35,35,,,,,None,,,,pu,1,sllip_013,61.3784716785,2C,auditory,2020_Jan_25_1447,
ta.wav,3,1,35,421,S,0,36,36,36,,,,,2,0.356902837753,,,pu,1,sllip_013,61.3784716785,2C,auditory,2020_Jan_25_1447,
ti.wav,3,2,35,422,S,0,37,37,37,,,,,None,,,,pu,1,sllip_013,61.3784716785,2C,auditory,2020_Jan_25_1447,
du.wav,3,3,35,423,S,0,38,38,38,,,,,2,0.0555250644684,,,pu,1,sllip_013,61.3784716785,2C,auditory,2020_Jan_25_1447,
bu.wav,4,1,36,424,S,0,39,39,39,,,,,2,0.0558581352234,,,pu,1,sllip_013,61.3784716785,2C,auditory,2020_Jan_25_1447,
pa.wav,4,2,36,425,S,0,40,40,40,,,,,2,0.0529799461365,,,pu,1,sllip_013,61.3784716785,2C,auditory,2020_Jan_25_1447,
da.wav,4,3,36,426,S,0,41,41,41,,,,,2,0.0755920410156,,,pu,1,sllip_013,61.3784716785,2C,auditory,2020_Jan_25_1447,
ta.wav,3,1,36,427,S,0,42,42,42,,,,,2,0.123040914536,,,pu,1,sllip_013,61.3784716785,2C,auditory,2020_Jan_25_1447,
ti.wav,3,2,36,428,S,0,43,43,43,,,,,2,0.205534934998,,,pu,1,sllip_013,61.3784716785,2C,auditory,2020_Jan_25_1447,
du.wav,3,3,36,429,S,0,44,44,44,,,,,2,0.234508037567,,,pu,1,sllip_013,61.3784716785,2C,auditory,2020_Jan_25_1447,
di.wav,2,1,36,430,S,0,45,45,45,,,,,2,0.240997076035,,,pu,1,sllip_013,61.3784716785,2C,auditory,2020_Jan_25_1447,
ba.wav,2,2,36,431,S,0,46,46,46,,,,,2,0.205617189407,,,pu,1,sllip_013,61.3784716785,2C,auditory,2020_Jan_25_1447,
pu.wav,2,3,36,432,S,0,47,47,47,,,,,2,0.338685035706,,,pu,1,sllip_013,61.3784716785,2C,auditory,2020_Jan_25_1447,
pi.wav,1,1,37,433,S,0,48,48,48,,,,,2,0.374322891235,,,pu,1,sllip_013,61.3784716785,2C,auditory,2020_Jan_25_1447,
tu.wav,1,2,37,434,S,0,49,49,49,,,,,2,0.371190071106,,,pu,1,sllip_013,61.3784716785,2C,auditory,2020_Jan_25_1447,
bi.wav,1,3,37,435,S,0,50,50,50,,,,,2,0.273527145386,,,pu,1,sllip_013,61.3784716785,2C,auditory,2020_Jan_25_1447,
ta.wav,3,1,37,436,S,0,51,51,51,,,,,2,0.323803186417,,,pu,1,sllip_013,61.3784716785,2C,auditory,2020_Jan_25_1447,
ti.wav,3,2,37,437,S,0,52,52,52,,,,,2,0.288363933563,,,pu,1,sllip_013,61.3784716785,2C,auditory,2020_Jan_25_1447,
du.wav,3,3,37,438,S,0,53,53,53,,,,,2,0.207132101059,,,pu,1,sllip_013,61.3784716785,2C,auditory,2020_Jan_25_1447,
pi.wav,1,1,38,439,S,0,54,54,54,,,,,2,0.208225011826,,,pu,1,sllip_013,61.3784716785,2C,auditory,2020_Jan_25_1447,
tu.wav,1,2,38,440,S,0,55,55,55,,,,,2,0.239536046982,,,pu,1,sllip_013,61.3784716785,2C,auditory,2020_Jan_25_1447,
bi.wav,1,3,38,441,S,0,56,56,56,,,,,2,0.190047979355,,,pu,1,sllip_013,61.3784716785,2C,auditory,2020_Jan_25_1447,
bu.wav,4,1,37,442,S,0,57,57,57,,,,,2,0.140722990036,,,pu,1,sllip_013,61.3784716785,2C,auditory,2020_Jan_25_1447,
pa.wav,4,2,37,443,S,0,58,58,58,,,,,2,0.1879529953,,,pu,1,sllip_013,61.3784716785,2C,auditory,2020_Jan_25_1447,
da.wav,4,3,37,444,S,0,59,59,59,,,,,2,0.190691947937,,,pu,1,sllip_013,61.3784716785,2C,auditory,2020_Jan_25_1447,
di.wav,2,1,37,445,S,0,60,60,60,,,,,2,0.158889055252,,,pu,1,sllip_013,61.3784716785,2C,auditory,2020_Jan_25_1447,
ba.wav,2,2,37,446,S,0,61,61,61,,,,,2,0.106890916824,,,pu,1,sllip_013,61.3784716785,2C,auditory,2020_Jan_25_1447,
pu.wav,2,3,37,447,S,0,62,62,62,,,,,2,0.255229949951,,,pu,1,sllip_013,61.3784716785,2C,auditory,2020_Jan_25_1447,
pi.wav,1,1,39,448,S,0,63,63,63,,,,,2,0.208895921707,,,pu,1,sllip_013,61.3784716785,2C,auditory,2020_Jan_25_1447,
tu.wav,1,2,39,449,S,0,64,64,64,,,,,2,0.155048131943,,,pu,1,sllip_013,61.3784716785,2C,auditory,2020_Jan_25_1447,
bi.wav,1,3,39,450,S,0,65,65,65,,,,,None,,,,pu,1,sllip_013,61.3784716785,2C,auditory,2020_Jan_25_1447,
bu.wav,4,1,38,451,S,0,66,66,66,,,,,2,0.201023101807,,,pu,1,sllip_013,61.3784716785,2C,auditory,2020_Jan_25_1447,
pa.wav,4,2,38,452,S,0,67,67,67,,,,,2,0.42481803894,,,pu,1,sllip_013,61.3784716785,2C,auditory,2020_Jan_25_1447,
da.wav,4,3,38,453,S,0,68,68,68,,,,,2,0.338491916656,,,pu,1,sllip_013,61.3784716785,2C,auditory,2020_Jan_25_1447,
di.wav,2,1,38,454,S,0,69,69,69,,,,,None,,,,pu,1,sllip_013,61.3784716785,2C,auditory,2020_Jan_25_1447,
ba.wav,2,2,38,455,S,0,70,70,70,,,,,2,0.005450963974,,,pu,1,sllip_013,61.3784716785,2C,auditory,2020_Jan_25_1447,
pu.wav,2,3,38,456,S,0,71,71,71,,,,,None,,,,pu,1,sllip_013,61.3784716785,2C,auditory,2020_Jan_25_1447,
ta.wav,3,1,38,457,S,0,72,72,72,,,,,2,0.056930065155,,,pu,1,sllip_013,61.3784716785,2C,auditory,2020_Jan_25_1447,
ti.wav,3,2,38,458,S,0,73,73,73,,,,,2,0.104554176331,,,pu,1,sllip_013,61.3784716785,2C,auditory,2020_Jan_25_1447,
du.wav,3,3,38,459,S,0,74,74,74,,,,,2,0.284304857254,,,pu,1,sllip_013,61.3784716785,2C,auditory,2020_Jan_25_1447,
di.wav,2,1,39,460,S,0,75,75,75,,,,,2,0.340303182602,,,pu,1,sllip_013,61.3784716785,2C,auditory,2020_Jan_25_1447,
ba.wav,2,2,39,461,S,0,76,76,76,,,,,2,0.455843925476,,,pu,1,sllip_013,61.3784716785,2C,auditory,2020_Jan_25_1447,
pu.wav,2,3,39,462,S,0,77,77,77,,,,,None,,,,pu,1,sllip_013,61.3784716785,2C,auditory,2020_Jan_25_1447,
pi.wav,1,1,40,463,S,0,78,78,78,,,,,2,0.00560307502747,,,pu,1,sllip_013,61.3784716785,2C,auditory,2020_Jan_25_1447,
tu.wav,1,2,40,464,S,0,79,79,79,,,,,2,0.0208759307861,,,pu,1,sllip_013,61.3784716785,2C,auditory,2020_Jan_25_1447,
bi.wav,1,3,40,465,S,0,80,80,80,,,,,2,0.0251579284668,,,pu,1,sllip_013,61.3784716785,2C,auditory,2020_Jan_25_1447,
ta.wav,3,1,39,466,S,0,81,81,81,,,,,2,0.00539302825928,,,pu,1,sllip_013,61.3784716785,2C,auditory,2020_Jan_25_1447,
ti.wav,3,2,39,467,S,0,82,82,82,,,,,None,,,,pu,1,sllip_013,61.3784716785,2C,auditory,2020_Jan_25_1447,
du.wav,3,3,39,468,S,0,83,83,83,,,,,2,0.0248630046844,,,pu,1,sllip_013,61.3784716785,2C,auditory,2020_Jan_25_1447,
bu.wav,4,1,39,469,S,0,84,84,84,,,,,2,0.0252771377563,,,pu,1,sllip_013,61.3784716785,2C,auditory,2020_Jan_25_1447,
pa.wav,4,2,39,470,S,0,85,85,85,,,,,2,0.0376470088959,,,pu,1,sllip_013,61.3784716785,2C,auditory,2020_Jan_25_1447,
da.wav,4,3,39,471,S,0,86,86,86,,,,,2,0.107251882553,,,pu,1,sllip_013,61.3784716785,2C,auditory,2020_Jan_25_1447,
ta.wav,3,1,40,472,S,0,87,87,87,,,,,2,0.172843933105,,,pu,1,sllip_013,61.3784716785,2C,auditory,2020_Jan_25_1447,
ti.wav,3,2,40,473,S,0,88,88,88,,,,,2,0.186867952347,,,pu,1,sllip_013,61.3784716785,2C,auditory,2020_Jan_25_1447,
du.wav,3,3,40,474,S,0,89,89,89,,,,,2,0.226047992706,,,pu,1,sllip_013,61.3784716785,2C,auditory,2020_Jan_25_1447,
di.wav,2,1,40,475,S,0,90,90,90,,,,,2,0.203695058823,,,pu,1,sllip_013,61.3784716785,2C,auditory,2020_Jan_25_1447,
ba.wav,2,2,40,476,S,0,91,91,91,,,,,2,0.103576898575,,,pu,1,sllip_013,61.3784716785,2C,auditory,2020_Jan_25_1447,
pu.wav,2,3,40,477,S,0,92,92,92,,,,,2,0.0743799209595,,,pu,1,sllip_013,61.3784716785,2C,auditory,2020_Jan_25_1447,
bu.wav,4,1,40,478,S,0,93,93,93,,,,,2,0.104224205017,,,pu,1,sllip_013,61.3784716785,2C,auditory,2020_Jan_25_1447,
pa.wav,4,2,40,479,S,0,94,94,94,,,,,2,0.13766503334,,,pu,1,sllip_013,61.3784716785,2C,auditory,2020_Jan_25_1447,
da.wav,4,3,40,480,S,0,95,95,95,,,,,2,0.0584628582001,,,pu,1,sllip_013,61.3784716785,2C,auditory,2020_Jan_25_1447,
silence.wav,0,0,0,0,B,0,96,96,96,,,,,2,0.0911378860474,,,pu,1,sllip_013,61.3784716785,2C,auditory,2020_Jan_25_1447,
silence.wav,0,0,0,0,B,0,97,97,97,,,,,2,0.137204885483,,,pu,1,sllip_013,61.3784716785,2C,auditory,2020_Jan_25_1447,
silence.wav,0,0,0,0,B,0,98,98,98,,,,,2,0.241999864578,,,pu,1,sllip_013,61.3784716785,2C,auditory,2020_Jan_25_1447,
silence.wav,0,0,0,0,B,0,99,99,99,,,,,2,0.236747026443,,,pu,1,sllip_013,61.3784716785,2C,auditory,2020_Jan_25_1447,
silence.wav,0,0,0,0,B,0,100,100,100,,,,,2,0.321624994278,,,pu,1,sllip_013,61.3784716785,2C,auditory,2020_Jan_25_1447,
silence.wav,0,0,0,0,B,0,101,101,101,,,,,None,,,,pu,1,sllip_013,61.3784716785,2C,auditory,2020_Jan_25_1447,
silence.wav,0,0,0,0,B,0,102,102,102,,,,,2,0.0565400123596,,,pu,1,sllip_013,61.3784716785,2C,auditory,2020_Jan_25_1447,
silence.wav,0,0,0,0,B,0,103,103,103,,,,,2,0.0874018669128,,,pu,1,sllip_013,61.3784716785,2C,auditory,2020_Jan_25_1447,
silence.wav,0,0,0,0,B,0,104,104,104,,,,,None,,,,pu,1,sllip_013,61.3784716785,2C,auditory,2020_Jan_25_1447,
silence.wav,0,0,0,0,B,0,105,105,105,,,,,2,0.222860097885,,,pu,1,sllip_013,61.3784716785,2C,auditory,2020_Jan_25_1447,
silence.wav,0,0,0,0,B,0,106,106,106,,,,,None,,,,pu,1,sllip_013,61.3784716785,2C,auditory,2020_Jan_25_1447,
silence.wav,0,0,0,0,B,0,107,107,107,,,,,2,0.370846986771,,,pu,1,sllip_013,61.3784716785,2C,auditory,2020_Jan_25_1447,
silence.wav,0,0,0,0,B,0,108,108,108,,,,,2,0.408306121826,,,pu,1,sllip_013,61.3784716785,2C,auditory,2020_Jan_25_1447,
2C.wav,0,1,1,385,R,,,,,0,0,0,0,,,None,,pu,1,sllip_013,61.3784716785,2C,auditory,2020_Jan_25_1447,
1B.wav,0,2,1,386,R,,,,,0,1,1,1,,,None,,pu,1,sllip_013,61.3784716785,2C,auditory,2020_Jan_25_1447,
3C.wav,0,3,1,387,R,,,,,0,2,2,2,,,None,,pu,1,sllip_013,61.3784716785,2C,auditory,2020_Jan_25_1447,
2B.wav,0,1,1,388,R,,,,,0,3,3,3,,,None,,pu,1,sllip_013,61.3784716785,2C,auditory,2020_Jan_25_1447,
3A.wav,0,2,1,389,R,,,,,0,4,4,4,,,2,0.38933300972,pu,1,sllip_013,61.3784716785,2C,auditory,2020_Jan_25_1447,
2C.wav,0,3,1,390,R,,,,,0,5,5,5,,,2,0.457309007645,pu,1,sllip_013,61.3784716785,2C,auditory,2020_Jan_25_1447,
3B.wav,0,1,1,391,R,,,,,0,6,6,6,,,None,,pu,1,sllip_013,61.3784716785,2C,auditory,2020_Jan_25_1447,
3C.wav,0,2,1,392,R,,,,,0,7,7,7,,,2,0.415139913559,pu,1,sllip_013,61.3784716785,2C,auditory,2020_Jan_25_1447,
2A.wav,0,3,1,393,R,,,,,0,8,8,8,,,None,,pu,1,sllip_013,61.3784716785,2C,auditory,2020_Jan_25_1447,
3B.wav,0,1,1,394,R,,,,,0,9,9,9,,,2,0.0209901332855,pu,1,sllip_013,61.3784716785,2C,auditory,2020_Jan_25_1447,
4A.wav,0,2,1,395,R,,,,,0,10,10,10,,,2,0.101531982422,pu,1,sllip_013,61.3784716785,2C,auditory,2020_Jan_25_1447,
3A.wav,0,3,1,396,R,,,,,0,11,11,11,,,2,0.459020853043,pu,1,sllip_013,61.3784716785,2C,auditory,2020_Jan_25_1447,
2B.wav,0,1,1,397,R,,,,,0,12,12,12,,,2,0.419224977493,pu,1,sllip_013,61.3784716785,2C,auditory,2020_Jan_25_1447,
4A.wav,0,2,1,398,R,,,,,0,13,13,13,,,None,,pu,1,sllip_013,61.3784716785,2C,auditory,2020_Jan_25_1447,
3C.wav,0,3,1,399,R,,,,,0,14,14,14,,,2,0.0488569736481,pu,1,sllip_013,61.3784716785,2C,auditory,2020_Jan_25_1447,
1C.wav,0,1,1,400,R,,,,,0,15,15,15,,,2,0.0214600563049,pu,1,sllip_013,61.3784716785,2C,auditory,2020_Jan_25_1447,
4C.wav,0,2,1,401,R,,,,,0,16,16,16,,,2,0.458679914474,pu,1,sllip_013,61.3784716785,2C,auditory,2020_Jan_25_1447,
4B.wav,0,3,1,402,R,,,,,0,17,17,17,,,2,0.42057299614,pu,1,sllip_013,61.3784716785,2C,auditory,2020_Jan_25_1447,
3B.wav,0,1,1,403,R,,,,,0,18,18,18,,,2,0.425279855728,pu,1,sllip_013,61.3784716785,2C,auditory,2020_Jan_25_1447,
4B.wav,0,2,1,404,R,,,,,0,19,19,19,,,None,,pu,1,sllip_013,61.3784716785,2C,auditory,2020_Jan_25_1447,
2A.wav,0,3,1,405,R,,,,,0,20,20,20,,,2,0.041090965271,pu,1,sllip_013,61.3784716785,2C,auditory,2020_Jan_25_1447,
3A.wav,0,1,1,406,R,,,,,0,21,21,21,,,2,0.322726964951,pu,1,sllip_013,61.3784716785,2C,auditory,2020_Jan_25_1447,
1A.wav,0,2,1,407,R,,,,,0,22,22,22,,,2,0.242445230484,pu,1,sllip_013,61.3784716785,2C,auditory,2020_Jan_25_1447,
4C.wav,0,3,1,408,R,,,,,0,23,23,23,,,2,0.173122882843,pu,1,sllip_013,61.3784716785,2C,auditory,2020_Jan_25_1447,
1A.wav,0,1,1,409,R,,,,,0,24,24,24,,,2,0.107264041901,pu,1,sllip_013,61.3784716785,2C,auditory,2020_Jan_25_1447,
4B.wav,0,2,1,410,R,,,,,0,25,25,25,,,2,0.0890641212463,pu,1,sllip_013,61.3784716785,2C,auditory,2020_Jan_25_1447,
1A.wav,0,3,1,411,R,,,,,0,26,26,26,,,2,0.387825965881,pu,1,sllip_013,61.3784716785,2C,auditory,2020_Jan_25_1447,
4A.wav,0,1,1,412,R,,,,,0,27,27,27,,,2,0.279597997665,pu,1,sllip_013,61.3784716785,2C,auditory,2020_Jan_25_1447,
2A.wav,0,2,1,413,R,,,,,0,28,28,28,,,2,0.205501079559,pu,1,sllip_013,61.3784716785,2C,auditory,2020_Jan_25_1447,
4A.wav,0,3,1,414,R,,,,,0,29,29,29,,,2,0.401720046997,pu,1,sllip_013,61.3784716785,2C,auditory,2020_Jan_25_1447,
1B.wav,0,1,1,415,R,,,,,0,30,30,30,,,2,0.222368001938,pu,1,sllip_013,61.3784716785,2C,auditory,2020_Jan_25_1447,
2B.wav,0,2,1,416,R,,,,,0,31,31,31,,,2,0.371877908707,pu,1,sllip_013,61.3784716785,2C,auditory,2020_Jan_25_1447,
1C.wav,0,3,1,417,R,,,,,0,32,32,32,,,2,0.22410607338,pu,1,sllip_013,61.3784716785,2C,auditory,2020_Jan_25_1447,
1C.wav,0,1,1,418,R,,,,,0,33,33,33,,,2,0.420511960983,pu,1,sllip_013,61.3784716785,2C,auditory,2020_Jan_25_1447,
4B.wav,0,2,1,419,R,,,,,0,34,34,34,,,2,0.354604005814,pu,1,sllip_013,61.3784716785,2C,auditory,2020_Jan_25_1447,
2A.wav,0,3,1,420,R,,,,,0,35,35,35,,,2,0.201745986938,pu,1,sllip_013,61.3784716785,2C,auditory,2020_Jan_25_1447,
3B.wav,0,1,1,421,R,,,,,0,36,36,36,,,2,0.0757060050964,pu,1,sllip_013,61.3784716785,2C,auditory,2020_Jan_25_1447,
1A.wav,0,2,1,422,R,,,,,0,37,37,37,,,2,0.405394792557,pu,1,sllip_013,61.3784716785,2C,auditory,2020_Jan_25_1447,
2B.wav,0,3,1,423,R,,,,,0,38,38,38,,,2,0.309195041656,pu,1,sllip_013,61.3784716785,2C,auditory,2020_Jan_25_1447,
3C.wav,0,1,1,424,R,,,,,0,39,39,39,,,2,0.223798036575,pu,1,sllip_013,61.3784716785,2C,auditory,2020_Jan_25_1447,
4C.wav,0,2,1,425,R,,,,,0,40,40,40,,,2,0.172644853592,pu,1,sllip_013,61.3784716785,2C,auditory,2020_Jan_25_1447,
3A.wav,0,3,1,426,R,,,,,0,41,41,41,,,2,0.0754280090332,pu,1,sllip_013,61.3784716785,2C,auditory,2020_Jan_25_1447,
2C.wav,0,1,1,427,R,,,,,0,42,42,42,,,2,0.0389778614044,pu,1,sllip_013,61.3784716785,2C,auditory,2020_Jan_25_1447,
1B.wav,0,2,1,428,R,,,,,0,43,43,43,,,2,0.453161001205,pu,1,sllip_013,61.3784716785,2C,auditory,2020_Jan_25_1447,
4C.wav,0,3,1,429,R,,,,,0,44,44,44,,,2,0.389391899109,pu,1,sllip_013,61.3784716785,2C,auditory,2020_Jan_25_1447,
2C.wav,0,1,1,430,R,,,,,0,45,45,45,,,2,0.342186927795,pu,1,sllip_013,61.3784716785,2C,auditory,2020_Jan_25_1447,
1B.wav,0,2,1,431,R,,,,,0,46,46,46,,,2,0.323322057724,pu,1,sllip_013,61.3784716785,2C,auditory,2020_Jan_25_1447,
1C.wav,0,3,1,432,R,,,,,0,47,47,47,,,2,0.238709926605,pu,1,sllip_013,61.3784716785,2C,auditory,2020_Jan_25_1447,
3C.wav,0,1,1,433,R,,,,,0,48,48,48,,,2,0.173110961914,pu,1,sllip_013,61.3784716785,2C,auditory,2020_Jan_25_1447,
3B.wav,0,2,1,434,R,,,,,0,49,49,49,,,2,0.09210896492,pu,1,sllip_013,61.3784716785,2C,auditory,2020_Jan_25_1447,
2A.wav,0,3,1,435,R,,,,,0,50,50,50,,,2,0.420680999756,pu,1,sllip_013,61.3784716785,2C,auditory,2020_Jan_25_1447,
3B.wav,0,1,1,436,R,,,,,0,51,51,51,,,2,0.354343175888,pu,1,sllip_013,61.3784716785,2C,auditory,2020_Jan_25_1447,
1B.wav,0,2,1,437,R,,,,,0,52,52,52,,,2,0.279779911041,pu,1,sllip_013,61.3784716785,2C,auditory,2020_Jan_25_1447,
2B.wav,0,3,1,438,R,,,,,0,53,53,53,,,2,0.320943117142,pu,1,sllip_013,61.3784716785,2C,auditory,2020_Jan_25_1447,
3B.wav,0,1,1,439,R,,,,,0,54,54,54,,,2,0.389359951019,pu,1,sllip_013,61.3784716785,2C,auditory,2020_Jan_25_1447,
4A.wav,0,2,1,440,R,,,,,0,55,55,55,,,None,,pu,1,sllip_013,61.3784716785,2C,auditory,2020_Jan_25_1447,
2C.wav,0,3,1,441,R,,,,,0,56,56,56,,,None,,pu,1,sllip_013,61.3784716785,2C,auditory,2020_Jan_25_1447,
3A.wav,0,1,1,442,R,,,,,0,57,57,57,,,2,0.020770072937,pu,1,sllip_013,61.3784716785,2C,auditory,2020_Jan_25_1447,
1C.wav,0,2,1,443,R,,,,,0,58,58,58,,,2,0.041846036911,pu,1,sllip_013,61.3784716785,2C,auditory,2020_Jan_25_1447,
3C.wav,0,3,1,444,R,,,,,0,59,59,59,,,2,0.207723140717,pu,1,sllip_013,61.3784716785,2C,auditory,2020_Jan_25_1447,
2B.wav,0,1,1,445,R,,,,,0,60,60,60,,,None,,pu,1,sllip_013,61.3784716785,2C,auditory,2020_Jan_25_1447,
2C.wav,0,2,1,446,R,,,,,0,61,61,61,,,None,,pu,1,sllip_013,61.3784716785,2C,auditory,2020_Jan_25_1447,
3A.wav,0,3,1,447,R,,,,,0,62,62,62,,,2,0.0405588150024,pu,1,sllip_013,61.3784716785,2C,auditory,2020_Jan_25_1447,
2A.wav,0,1,1,448,R,,,,,0,63,63,63,,,2,0.0379159450531,pu,1,sllip_013,61.3784716785,2C,auditory,2020_Jan_25_1447,
3A.wav,0,2,1,449,R,,,,,0,64,64,64,,,2,0.38808298111,pu,1,sllip_013,61.3784716785,2C,auditory,2020_Jan_25_1447,
1C.wav,0,3,1,450,R,,,,,0,65,65,65,,,2,0.321239948273,pu,1,sllip_013,61.3784716785,2C,auditory,2020_Jan_25_1447,
4C.wav,0,1,1,451,R,,,,,0,66,66,66,,,2,0.272664070129,pu,1,sllip_013,61.3784716785,2C,auditory,2020_Jan_25_1447,
1B.wav,0,2,1,452,R,,,,,0,67,67,67,,,2,0.188192129135,pu,1,sllip_013,61.3784716785,2C,auditory,2020_Jan_25_1447,
1A.wav,0,3,1,453,R,,,,,0,68,68,68,,,2,0.439988851547,pu,1,sllip_013,61.3784716785,2C,auditory,2020_Jan_25_1447,
3C.wav,0,1,1,454,R,,,,,0,69,69,69,,,2,0.301023960114,pu,1,sllip_013,61.3784716785,2C,auditory,2020_Jan_25_1447,
4B.wav,0,2,1,455,R,,,,,0,70,70,70,,,2,0.173700094223,pu,1,sllip_013,61.3784716785,2C,auditory,2020_Jan_25_1447,
1A.wav,0,3,1,456,R,,,,,0,71,71,71,,,2,0.123599052429,pu,1,sllip_013,61.3784716785,2C,auditory,2020_Jan_25_1447,
2A.wav,0,1,1,457,R,,,,,0,72,72,72,,,2,0.402861833572,pu,1,sllip_013,61.3784716785,2C,auditory,2020_Jan_25_1447,
1B.wav,0,2,1,458,R,,,,,0,73,73,73,,,2,0.356029987335,pu,1,sllip_013,61.3784716785,2C,auditory,2020_Jan_25_1447,
4C.wav,0,3,1,459,R,,,,,0,74,74,74,,,2,0.273180007935,pu,1,sllip_013,61.3784716785,2C,auditory,2020_Jan_25_1447,
1B.wav,0,1,1,460,R,,,,,0,75,75,75,,,2,0.258790969849,pu,1,sllip_013,61.3784716785,2C,auditory,2020_Jan_25_1447,
3B.wav,0,2,1,461,R,,,,,0,76,76,76,,,2,0.188511133194,pu,1,sllip_013,61.3784716785,2C,auditory,2020_Jan_25_1447,
4B.wav,0,3,1,462,R,,,,,0,77,77,77,,,2,0.133585929871,pu,1,sllip_013,61.3784716785,2C,auditory,2020_Jan_25_1447,
2B.wav,0,1,1,463,R,,,,,0,78,78,78,,,2,0.0561430454254,pu,1,sllip_013,61.3784716785,2C,auditory,2020_Jan_25_1447,
4A.wav,0,2,1,464,R,,,,,0,79,79,79,,,2,0.0373029708862,pu,1,sllip_013,61.3784716785,2C,auditory,2020_Jan_25_1447,
4B.wav,0,3,1,465,R,,,,,0,80,80,80,,,2,0.0395431518555,pu,1,sllip_013,61.3784716785,2C,auditory,2020_Jan_25_1447,
2A.wav,0,1,1,466,R,,,,,0,81,81,81,,,None,,pu,1,sllip_013,61.3784716785,2C,auditory,2020_Jan_25_1447,
4C.wav,0,2,1,467,R,,,,,0,82,82,82,,,None,,pu,1,sllip_013,61.3784716785,2C,auditory,2020_Jan_25_1447,
4A.wav,0,3,1,468,R,,,,,0,83,83,83,,,None,,pu,1,sllip_013,61.3784716785,2C,auditory,2020_Jan_25_1447,
1A.wav,0,1,1,469,R,,,,,0,84,84,84,,,None,,pu,1,sllip_013,61.3784716785,2C,auditory,2020_Jan_25_1447,
4C.wav,0,2,1,470,R,,,,,0,85,85,85,,,None,,pu,1,sllip_013,61.3784716785,2C,auditory,2020_Jan_25_1447,
3C.wav,0,3,1,471,R,,,,,0,86,86,86,,,2,0.00614714622498,pu,1,sllip_013,61.3784716785,2C,auditory,2020_Jan_25_1447,
1A.wav,0,1,1,472,R,,,,,0,87,87,87,,,2,0.0869278907776,pu,1,sllip_013,61.3784716785,2C,auditory,2020_Jan_25_1447,
4A.wav,0,2,1,473,R,,,,,0,88,88,88,,,2,0.438609838486,pu,1,sllip_013,61.3784716785,2C,auditory,2020_Jan_25_1447,
4B.wav,0,3,1,474,R,,,,,0,89,89,89,,,2,0.421406030655,pu,1,sllip_013,61.3784716785,2C,auditory,2020_Jan_25_1447,
2C.wav,0,1,1,475,R,,,,,0,90,90,90,,,2,0.371167182922,pu,1,sllip_013,61.3784716785,2C,auditory,2020_Jan_25_1447,
1C.wav,0,2,1,476,R,,,,,0,91,91,91,,,2,0.26936006546,pu,1,sllip_013,61.3784716785,2C,auditory,2020_Jan_25_1447,
2B.wav,0,3,1,477,R,,,,,0,92,92,92,,,None,,pu,1,sllip_013,61.3784716785,2C,auditory,2020_Jan_25_1447,
2C.wav,0,1,1,478,R,,,,,0,93,93,93,,,2,0.206671953201,pu,1,sllip_013,61.3784716785,2C,auditory,2020_Jan_25_1447,
1C.wav,0,2,1,479,R,,,,,0,94,94,94,,,2,0.191128969193,pu,1,sllip_013,61.3784716785,2C,auditory,2020_Jan_25_1447,
3A.wav,0,3,1,480,R,,,,,0,95,95,95,,,2,0.123295068741,pu,1,sllip_013,61.3784716785,2C,auditory,2020_Jan_25_1447,
silence.wav,0,0,0,0,B,,,,,0,96,96,96,,,2,0.105922937393,pu,1,sllip_013,61.3784716785,2C,auditory,2020_Jan_25_1447,
silence.wav,0,0,0,0,B,,,,,0,97,97,97,,,None,,pu,1,sllip_013,61.3784716785,2C,auditory,2020_Jan_25_1447,
silence.wav,0,0,0,0,B,,,,,0,98,98,98,,,None,,pu,1,sllip_013,61.3784716785,2C,auditory,2020_Jan_25_1447,
silence.wav,0,0,0,0,B,,,,,0,99,99,99,,,None,,pu,1,sllip_013,61.3784716785,2C,auditory,2020_Jan_25_1447,
silence.wav,0,0,0,0,B,,,,,0,100,100,100,,,None,,pu,1,sllip_013,61.3784716785,2C,auditory,2020_Jan_25_1447,
silence.wav,0,0,0,0,B,,,,,0,101,101,101,,,2,0.153674840927,pu,1,sllip_013,61.3784716785,2C,auditory,2020_Jan_25_1447,
silence.wav,0,0,0,0,B,,,,,0,102,102,102,,,2,0.171768188477,pu,1,sllip_013,61.3784716785,2C,auditory,2020_Jan_25_1447,
silence.wav,0,0,0,0,B,,,,,0,103,103,103,,,2,0.224745988846,pu,1,sllip_013,61.3784716785,2C,auditory,2020_Jan_25_1447,
silence.wav,0,0,0,0,B,,,,,0,104,104,104,,,None,,pu,1,sllip_013,61.3784716785,2C,auditory,2020_Jan_25_1447,
silence.wav,0,0,0,0,B,,,,,0,105,105,105,,,None,,pu,1,sllip_013,61.3784716785,2C,auditory,2020_Jan_25_1447,
silence.wav,0,0,0,0,B,,,,,0,106,106,106,,,None,,pu,1,sllip_013,61.3784716785,2C,auditory,2020_Jan_25_1447,
silence.wav,0,0,0,0,B,,,,,0,107,107,107,,,None,,pu,1,sllip_013,61.3784716785,2C,auditory,2020_Jan_25_1447,
silence.wav,0,0,0,0,B,,,,,0,108,108,108,,,None,,pu,1,sllip_013,61.3784716785,2C,auditory,2020_Jan_25_1447,
pi.wav,1,1,25,289,S,0,0,0,0,,,,,None,,,,pu,1,sllip_013,61.3784716785,2C,auditory,2020_Jan_25_1447,
tu.wav,1,2,25,290,S,0,1,1,1,,,,,None,,,,pu,1,sllip_013,61.3784716785,2C,auditory,2020_Jan_25_1447,
bi.wav,1,3,25,291,S,0,2,2,2,,,,,None,,,,pu,1,sllip_013,61.3784716785,2C,auditory,2020_Jan_25_1447,
di.wav,2,1,25,292,S,0,3,3,3,,,,,None,,,,pu,1,sllip_013,61.3784716785,2C,auditory,2020_Jan_25_1447,
ba.wav,2,2,25,293,S,0,4,4,4,,,,,None,,,,pu,1,sllip_013,61.3784716785,2C,auditory,2020_Jan_25_1447,
pu.wav,2,3,25,294,S,0,5,5,5,,,,,None,,,,pu,1,sllip_013,61.3784716785,2C,auditory,2020_Jan_25_1447,
ta.wav,3,1,25,295,S,0,6,6,6,,,,,None,,,,pu,1,sllip_013,61.3784716785,2C,auditory,2020_Jan_25_1447,
ti.wav,3,2,25,296,S,0,7,7,7,,,,,None,,,,pu,1,sllip_013,61.3784716785,2C,auditory,2020_Jan_25_1447,
du.wav,3,3,25,297,S,0,8,8,8,,,,,None,,,,pu,1,sllip_013,61.3784716785,2C,auditory,2020_Jan_25_1447,
pi.wav,1,1,26,298,S,0,9,9,9,,,,,None,,,,pu,1,sllip_013,61.3784716785,2C,auditory,2020_Jan_25_1447,
tu.wav,1,2,26,299,S,0,10,10,10,,,,,None,,,,pu,1,sllip_013,61.3784716785,2C,auditory,2020_Jan_25_1447,
bi.wav,1,3,26,300,S,0,11,11,11,,,,,None,,,,pu,1,sllip_013,61.3784716785,2C,auditory,2020_Jan_25_1447,
bu.wav,4,1,25,301,S,0,12,12,12,,,,,None,,,,pu,1,sllip_013,61.3784716785,2C,auditory,2020_Jan_25_1447,
pa.wav,4,2,25,302,S,0,13,13,13,,,,,None,,,,pu,1,sllip_013,61.3784716785,2C,auditory,2020_Jan_25_1447,
da.wav,4,3,25,303,S,0,14,14,14,,,,,None,,,,pu,1,sllip_013,61.3784716785,2C,auditory,2020_Jan_25_1447,
di.wav,2,1,26,304,S,0,15,15,15,,,,,None,,,,pu,1,sllip_013,61.3784716785,2C,auditory,2020_Jan_25_1447,
ba.wav,2,2,26,305,S,0,16,16,16,,,,,None,,,,pu,1,sllip_013,61.3784716785,2C,auditory,2020_Jan_25_1447,
pu.wav,2,3,26,306,S,0,17,17,17,,,,,None,,,,pu,1,sllip_013,61.3784716785,2C,auditory,2020_Jan_25_1447,
ta.wav,3,1,26,307,S,0,18,18,18,,,,,None,,,,pu,1,sllip_013,61.3784716785,2C,auditory,2020_Jan_25_1447,
ti.wav,3,2,26,308,S,0,19,19,19,,,,,None,,,,pu,1,sllip_013,61.3784716785,2C,auditory,2020_Jan_25_1447,
du.wav,3,3,26,309,S,0,20,20,20,,,,,None,,,,pu,1,sllip_013,61.3784716785,2C,auditory,2020_Jan_25_1447,
pi.wav,1,1,27,310,S,0,21,21,21,,,,,None,,,,pu,1,sllip_013,61.3784716785,2C,auditory,2020_Jan_25_1447,
tu.wav,1,2,27,311,S,0,22,22,22,,,,,None,,,,pu,1,sllip_013,61.3784716785,2C,auditory,2020_Jan_25_1447,
bi.wav,1,3,27,312,S,0,23,23,23,,,,,None,,,,pu,1,sllip_013,61.3784716785,2C,auditory,2020_Jan_25_1447,
bu.wav,4,1,26,313,S,0,24,24,24,,,,,None,,,,pu,1,sllip_013,61.3784716785,2C,auditory,2020_Jan_25_1447,
pa.wav,4,2,26,314,S,0,25,25,25,,,,,None,,,,pu,1,sllip_013,61.3784716785,2C,auditory,2020_Jan_25_1447,
da.wav,4,3,26,315,S,0,26,26,26,,,,,None,,,,pu,1,sllip_013,61.3784716785,2C,auditory,2020_Jan_25_1447,
di.wav,2,1,27,316,S,0,27,27,27,,,,,None,,,,pu,1,sllip_013,61.3784716785,2C,auditory,2020_Jan_25_1447,
ba.wav,2,2,27,317,S,0,28,28,28,,,,,None,,,,pu,1,sllip_013,61.3784716785,2C,auditory,2020_Jan_25_1447,
pu.wav,2,3,27,318,S,0,29,29,29,,,,,None,,,,pu,1,sllip_013,61.3784716785,2C,auditory,2020_Jan_25_1447,
bu.wav,4,1,27,319,S,0,30,30,30,,,,,None,,,,pu,1,sllip_013,61.3784716785,2C,auditory,2020_Jan_25_1447,
pa.wav,4,2,27,320,S,0,31,31,31,,,,,None,,,,pu,1,sllip_013,61.3784716785,2C,auditory,2020_Jan_25_1447,
da.wav,4,3,27,321,S,0,32,32,32,,,,,None,,,,pu,1,sllip_013,61.3784716785,2C,auditory,2020_Jan_25_1447,
ta.wav,3,1,27,322,S,0,33,33,33,,,,,None,,,,pu,1,sllip_013,61.3784716785,2C,auditory,2020_Jan_25_1447,
ti.wav,3,2,27,323,S,0,34,34,34,,,,,None,,,,pu,1,sllip_013,61.3784716785,2C,auditory,2020_Jan_25_1447,
du.wav,3,3,27,324,S,0,35,35,35,,,,,None,,,,pu,1,sllip_013,61.3784716785,2C,auditory,2020_Jan_25_1447,
pi.wav,1,1,28,325,S,0,36,36,36,,,,,None,,,,pu,1,sllip_013,61.3784716785,2C,auditory,2020_Jan_25_1447,
tu.wav,1,2,28,326,S,0,37,37,37,,,,,None,,,,pu,1,sllip_013,61.3784716785,2C,auditory,2020_Jan_25_1447,
bi.wav,1,3,28,327,S,0,38,38,38,,,,,None,,,,pu,1,sllip_013,61.3784716785,2C,auditory,2020_Jan_25_1447,
ta.wav,3,1,28,328,S,0,39,39,39,,,,,None,,,,pu,1,sllip_013,61.3784716785,2C,auditory,2020_Jan_25_1447,
ti.wav,3,2,28,329,S,0,40,40,40,,,,,None,,,,pu,1,sllip_013,61.3784716785,2C,auditory,2020_Jan_25_1447,
du.wav,3,3,28,330,S,0,41,41,41,,,,,None,,,,pu,1,sllip_013,61.3784716785,2C,auditory,2020_Jan_25_1447,
pi.wav,1,1,29,331,S,0,42,42,42,,,,,None,,,,pu,1,sllip_013,61.3784716785,2C,auditory,2020_Jan_25_1447,
tu.wav,1,2,29,332,S,0,43,43,43,,,,,None,,,,pu,1,sllip_013,61.3784716785,2C,auditory,2020_Jan_25_1447,
bi.wav,1,3,29,333,S,0,44,44,44,,,,,None,,,,pu,1,sllip_013,61.3784716785,2C,auditory,2020_Jan_25_1447,
bu.wav,4,1,28,334,S,0,45,45,45,,,,,None,,,,pu,1,sllip_013,61.3784716785,2C,auditory,2020_Jan_25_1447,
pa.wav,4,2,28,335,S,0,46,46,46,,,,,None,,,,pu,1,sllip_013,61.3784716785,2C,auditory,2020_Jan_25_1447,
da.wav,4,3,28,336,S,0,47,47,47,,,,,None,,,,pu,1,sllip_013,61.3784716785,2C,auditory,2020_Jan_25_1447,
di.wav,2,1,28,337,S,0,48,48,48,,,,,None,,,,pu,1,sllip_013,61.3784716785,2C,auditory,2020_Jan_25_1447,
ba.wav,2,2,28,338,S,0,49,49,49,,,,,None,,,,pu,1,sllip_013,61.3784716785,2C,auditory,2020_Jan_25_1447,
pu.wav,2,3,28,339,S,0,50,50,50,,,,,None,,,,pu,1,sllip_013,61.3784716785,2C,auditory,2020_Jan_25_1447,
ta.wav,3,1,29,340,S,0,51,51,51,,,,,None,,,,pu,1,sllip_013,61.3784716785,2C,auditory,2020_Jan_25_1447,
ti.wav,3,2,29,341,S,0,52,52,52,,,,,None,,,,pu,1,sllip_013,61.3784716785,2C,auditory,2020_Jan_25_1447,
du.wav,3,3,29,342,S,0,53,53,53,,,,,None,,,,pu,1,sllip_013,61.3784716785,2C,auditory,2020_Jan_25_1447,
pi.wav,1,1,30,343,S,0,54,54,54,,,,,None,,,,pu,1,sllip_013,61.3784716785,2C,auditory,2020_Jan_25_1447,
tu.wav,1,2,30,344,S,0,55,55,55,,,,,None,,,,pu,1,sllip_013,61.3784716785,2C,auditory,2020_Jan_25_1447,
bi.wav,1,3,30,345,S,0,56,56,56,,,,,None,,,,pu,1,sllip_013,61.3784716785,2C,auditory,2020_Jan_25_1447,
bu.wav,4,1,29,346,S,0,57,57,57,,,,,None,,,,pu,1,sllip_013,61.3784716785,2C,auditory,2020_Jan_25_1447,
pa.wav,4,2,29,347,S,0,58,58,58,,,,,None,,,,pu,1,sllip_013,61.3784716785,2C,auditory,2020_Jan_25_1447,
da.wav,4,3,29,348,S,0,59,59,59,,,,,None,,,,pu,1,sllip_013,61.3784716785,2C,auditory,2020_Jan_25_1447,
di.wav,2,1,29,349,S,0,60,60,60,,,,,None,,,,pu,1,sllip_013,61.3784716785,2C,auditory,2020_Jan_25_1447,
ba.wav,2,2,29,350,S,0,61,61,61,,,,,None,,,,pu,1,sllip_013,61.3784716785,2C,auditory,2020_Jan_25_1447,
pu.wav,2,3,29,351,S,0,62,62,62,,,,,None,,,,pu,1,sllip_013,61.3784716785,2C,auditory,2020_Jan_25_1447,
bu.wav,4,1,30,352,S,0,63,63,63,,,,,None,,,,pu,1,sllip_013,61.3784716785,2C,auditory,2020_Jan_25_1447,
pa.wav,4,2,30,353,S,0,64,64,64,,,,,None,,,,pu,1,sllip_013,61.3784716785,2C,auditory,2020_Jan_25_1447,
da.wav,4,3,30,354,S,0,65,65,65,,,,,None,,,,pu,1,sllip_013,61.3784716785,2C,auditory,2020_Jan_25_1447,
pi.wav,1,1,31,355,S,0,66,66,66,,,,,None,,,,pu,1,sllip_013,61.3784716785,2C,auditory,2020_Jan_25_1447,
tu.wav,1,2,31,356,S,0,67,67,67,,,,,None,,,,pu,1,sllip_013,61.3784716785,2C,auditory,2020_Jan_25_1447,
bi.wav,1,3,31,357,S,0,68,68,68,,,,,None,,,,pu,1,sllip_013,61.3784716785,2C,auditory,2020_Jan_25_1447,
ta.wav,3,1,30,358,S,0,69,69,69,,,,,None,,,,pu,1,sllip_013,61.3784716785,2C,auditory,2020_Jan_25_1447,
ti.wav,3,2,30,359,S,0,70,70,70,,,,,None,,,,pu,1,sllip_013,61.3784716785,2C,auditory,2020_Jan_25_1447,
du.wav,3,3,30,360,S,0,71,71,71,,,,,None,,,,pu,1,sllip_013,61.3784716785,2C,auditory,2020_Jan_25_1447,
di.wav,2,1,30,361,S,0,72,72,72,,,,,None,,,,pu,1,sllip_013,61.3784716785,2C,auditory,2020_Jan_25_1447,
ba.wav,2,2,30,362,S,0,73,73,73,,,,,None,,,,pu,1,sllip_013,61.3784716785,2C,auditory,2020_Jan_25_1447,
pu.wav,2,3,30,363,S,0,74,74,74,,,,,None,,,,pu,1,sllip_013,61.3784716785,2C,auditory,2020_Jan_25_1447,
pi.wav,1,1,32,364,S,0,75,75,75,,,,,None,,,,pu,1,sllip_013,61.3784716785,2C,auditory,2020_Jan_25_1447,
tu.wav,1,2,32,365,S,0,76,76,76,,,,,None,,,,pu,1,sllip_013,61.3784716785,2C,auditory,2020_Jan_25_1447,
bi.wav,1,3,32,366,S,0,77,77,77,,,,,None,,,,pu,1,sllip_013,61.3784716785,2C,auditory,2020_Jan_25_1447,
bu.wav,4,1,31,367,S,0,78,78,78,,,,,None,,,,pu,1,sllip_013,61.3784716785,2C,auditory,2020_Jan_25_1447,
pa.wav,4,2,31,368,S,0,79,79,79,,,,,None,,,,pu,1,sllip_013,61.3784716785,2C,auditory,2020_Jan_25_1447,
da.wav,4,3,31,369,S,0,80,80,80,,,,,None,,,,pu,1,sllip_013,61.3784716785,2C,auditory,2020_Jan_25_1447,
ta.wav,3,1,31,370,S,0,81,81,81,,,,,None,,,,pu,1,sllip_013,61.3784716785,2C,auditory,2020_Jan_25_1447,
ti.wav,3,2,31,371,S,0,82,82,82,,,,,None,,,,pu,1,sllip_013,61.3784716785,2C,auditory,2020_Jan_25_1447,
du.wav,3,3,31,372,S,0,83,83,83,,,,,None,,,,pu,1,sllip_013,61.3784716785,2C,auditory,2020_Jan_25_1447,
di.wav,2,1,31,373,S,0,84,84,84,,,,,None,,,,pu,1,sllip_013,61.3784716785,2C,auditory,2020_Jan_25_1447,
ba.wav,2,2,31,374,S,0,85,85,85,,,,,None,,,,pu,1,sllip_013,61.3784716785,2C,auditory,2020_Jan_25_1447,
pu.wav,2,3,31,375,S,0,86,86,86,,,,,None,,,,pu,1,sllip_013,61.3784716785,2C,auditory,2020_Jan_25_1447,
bu.wav,4,1,32,376,S,0,87,87,87,,,,,None,,,,pu,1,sllip_013,61.3784716785,2C,auditory,2020_Jan_25_1447,
pa.wav,4,2,32,377,S,0,88,88,88,,,,,None,,,,pu,1,sllip_013,61.3784716785,2C,auditory,2020_Jan_25_1447,
da.wav,4,3,32,378,S,0,89,89,89,,,,,None,,,,pu,1,sllip_013,61.3784716785,2C,auditory,2020_Jan_25_1447,
ta.wav,3,1,32,382,S,0,90,90,90,,,,,None,,,,pu,1,sllip_013,61.3784716785,2C,auditory,2020_Jan_25_1447,
ti.wav,3,2,32,383,S,0,91,91,91,,,,,None,,,,pu,1,sllip_013,61.3784716785,2C,auditory,2020_Jan_25_1447,
du.wav,3,3,32,384,S,0,92,92,92,,,,,None,,,,pu,1,sllip_013,61.3784716785,2C,auditory,2020_Jan_25_1447,
di.wav,2,1,32,388,S,0,93,93,93,,,,,None,,,,pu,1,sllip_013,61.3784716785,2C,auditory,2020_Jan_25_1447,
ba.wav,2,2,32,389,S,0,94,94,94,,,,,None,,,,pu,1,sllip_013,61.3784716785,2C,auditory,2020_Jan_25_1447,
pu.wav,2,3,32,390,S,0,95,95,95,,,,,None,,,,pu,1,sllip_013,61.3784716785,2C,auditory,2020_Jan_25_1447,
silence.wav,0,0,0,0,B,0,96,96,96,,,,,None,,,,pu,1,sllip_013,61.3784716785,2C,auditory,2020_Jan_25_1447,
silence.wav,0,0,0,0,B,0,97,97,97,,,,,None,,,,pu,1,sllip_013,61.3784716785,2C,auditory,2020_Jan_25_1447,
silence.wav,0,0,0,0,B,0,98,98,98,,,,,None,,,,pu,1,sllip_013,61.3784716785,2C,auditory,2020_Jan_25_1447,
silence.wav,0,0,0,0,B,0,99,99,99,,,,,None,,,,pu,1,sllip_013,61.3784716785,2C,auditory,2020_Jan_25_1447,
silence.wav,0,0,0,0,B,0,100,100,100,,,,,None,,,,pu,1,sllip_013,61.3784716785,2C,auditory,2020_Jan_25_1447,
silence.wav,0,0,0,0,B,0,101,101,101,,,,,None,,,,pu,1,sllip_013,61.3784716785,2C,auditory,2020_Jan_25_1447,
silence.wav,0,0,0,0,B,0,102,102,102,,,,,None,,,,pu,1,sllip_013,61.3784716785,2C,auditory,2020_Jan_25_1447,
silence.wav,0,0,0,0,B,0,103,103,103,,,,,None,,,,pu,1,sllip_013,61.3784716785,2C,auditory,2020_Jan_25_1447,
silence.wav,0,0,0,0,B,0,104,104,104,,,,,None,,,,pu,1,sllip_013,61.3784716785,2C,auditory,2020_Jan_25_1447,
silence.wav,0,0,0,0,B,0,105,105,105,,,,,None,,,,pu,1,sllip_013,61.3784716785,2C,auditory,2020_Jan_25_1447,
silence.wav,0,0,0,0,B,0,106,106,106,,,,,None,,,,pu,1,sllip_013,61.3784716785,2C,auditory,2020_Jan_25_1447,
silence.wav,0,0,0,0,B,0,107,107,107,,,,,None,,,,pu,1,sllip_013,61.3784716785,2C,auditory,2020_Jan_25_1447,
silence.wav,0,0,0,0,B,0,108,108,108,,,,,None,,,,pu,1,sllip_013,61.3784716785,2C,auditory,2020_Jan_25_1447,
pi.wav,1,1,41,481,S,0,0,0,0,,,,,None,,,,pu,1,sllip_013,61.3784716785,2C,auditory,2020_Jan_25_1447,
tu.wav,1,2,41,482,S,0,1,1,1,,,,,2,0.415419101715,,,pu,1,sllip_013,61.3784716785,2C,auditory,2020_Jan_25_1447,
bi.wav,1,3,41,483,S,0,2,2,2,,,,,2,0.30264210701,,,pu,1,sllip_013,61.3784716785,2C,auditory,2020_Jan_25_1447,
bu.wav,4,1,41,484,S,0,3,3,3,,,,,2,0.188488960266,,,pu,1,sllip_013,61.3784716785,2C,auditory,2020_Jan_25_1447,
pa.wav,4,2,41,485,S,0,4,4,4,,,,,2,0.105437994003,,,pu,1,sllip_013,61.3784716785,2C,auditory,2020_Jan_25_1447,
da.wav,4,3,41,486,S,0,5,5,5,,,,,2,0.0413889884949,,,pu,1,sllip_013,61.3784716785,2C,auditory,2020_Jan_25_1447,
di.wav,2,1,41,487,S,0,6,6,6,,,,,2,0.0554580688477,,,pu,1,sllip_013,61.3784716785,2C,auditory,2020_Jan_25_1447,
ba.wav,2,2,41,488,S,0,7,7,7,,,,,2,0.370343923569,,,pu,1,sllip_013,61.3784716785,2C,auditory,2020_Jan_25_1447,
pu.wav,2,3,41,489,S,0,8,8,8,,,,,2,0.22039604187,,,pu,1,sllip_013,61.3784716785,2C,auditory,2020_Jan_25_1447,
ta.wav,3,1,41,490,S,0,9,9,9,,,,,2,0.308094978333,,,pu,1,sllip_013,61.3784716785,2C,auditory,2020_Jan_25_1447,
ti.wav,3,2,41,491,S,0,10,10,10,,,,,2,0.425788164139,,,pu,1,sllip_013,61.3784716785,2C,auditory,2020_Jan_25_1447,
du.wav,3,3,41,492,S,0,11,11,11,,,,,2,0.218748092651,,,pu,1,sllip_013,61.3784716785,2C,auditory,2020_Jan_25_1447,
bu.wav,4,1,42,493,S,0,12,12,12,,,,,2,0.306174993515,,,pu,1,sllip_013,61.3784716785,2C,auditory,2020_Jan_25_1447,
pa.wav,4,2,42,494,S,0,13,13,13,,,,,2,0.44172000885,,,pu,1,sllip_013,61.3784716785,2C,auditory,2020_Jan_25_1447,
da.wav,4,3,42,495,S,0,14,14,14,,,,,2,0.319334983826,,,pu,1,sllip_013,61.3784716785,2C,auditory,2020_Jan_25_1447,
pi.wav,1,1,42,496,S,0,15,15,15,,,,,2,0.425112009048,,,pu,1,sllip_013,61.3784716785,2C,auditory,2020_Jan_25_1447,
tu.wav,1,2,42,497,S,0,16,16,16,,,,,2,0.259599208832,,,pu,1,sllip_013,61.3784716785,2C,auditory,2020_Jan_25_1447,
bi.wav,1,3,42,498,S,0,17,17,17,,,,,2,0.454077959061,,,pu,1,sllip_013,61.3784716785,2C,auditory,2020_Jan_25_1447,
di.wav,2,1,42,499,S,0,18,18,18,,,,,2,0.305665016174,,,pu,1,sllip_013,61.3784716785,2C,auditory,2020_Jan_25_1447,
ba.wav,2,2,42,500,S,0,19,19,19,,,,,2,0.123174190521,,,pu,1,sllip_013,61.3784716785,2C,auditory,2020_Jan_25_1447,
pu.wav,2,3,42,501,S,0,20,20,20,,,,,2,0.322259902954,,,pu,1,sllip_013,61.3784716785,2C,auditory,2020_Jan_25_1447,
ta.wav,3,1,42,502,S,0,21,21,21,,,,,2,0.457799911499,,,pu,1,sllip_013,61.3784716785,2C,auditory,2020_Jan_25_1447,
ti.wav,3,2,42,503,S,0,22,22,22,,,,,2,0.324687004089,,,pu,1,sllip_013,61.3784716785,2C,auditory,2020_Jan_25_1447,
du.wav,3,3,42,504,S,0,23,23,23,,,,,2,0.172772884369,,,pu,1,sllip_013,61.3784716785,2C,auditory,2020_Jan_25_1447,
pi.wav,1,1,43,505,S,0,24,24,24,,,,,2,0.304942846298,,,pu,1,sllip_013,61.3784716785,2C,auditory,2020_Jan_25_1447,
tu.wav,1,2,43,506,S,0,25,25,25,,,,,2,0.442451000214,,,pu,1,sllip_013,61.3784716785,2C,auditory,2020_Jan_25_1447,
bi.wav,1,3,43,507,S,0,26,26,26,,,,,2,0.26902794838,,,pu,1,sllip_013,61.3784716785,2C,auditory,2020_Jan_25_1447,
ta.wav,3,1,43,508,S,0,27,27,27,,,,,2,0.411710977554,,,pu,1,sllip_013,61.3784716785,2C,auditory,2020_Jan_25_1447,
ti.wav,3,2,43,509,S,0,28,28,28,,,,,2,0.255313873291,,,pu,1,sllip_013,61.3784716785,2C,auditory,2020_Jan_25_1447,
du.wav,3,3,43,510,S,0,29,29,29,,,,,2,0.12409901619,,,pu,1,sllip_013,61.3784716785,2C,auditory,2020_Jan_25_1447,
bu.wav,4,1,43,511,S,0,30,30,30,,,,,2,0.30616402626,,,pu,1,sllip_013,61.3784716785,2C,auditory,2020_Jan_25_1447,
pa.wav,4,2,43,512,S,0,31,31,31,,,,,2,0.220417022705,,,pu,1,sllip_013,61.3784716785,2C,auditory,2020_Jan_25_1447,
da.wav,4,3,43,513,S,0,32,32,32,,,,,2,0.457140922546,,,pu,1,sllip_013,61.3784716785,2C,auditory,2020_Jan_25_1447,
di.wav,2,1,43,514,S,0,33,33,33,,,,,2,0.289803981781,,,pu,1,sllip_013,61.3784716785,2C,auditory,2020_Jan_25_1447,
ba.wav,2,2,43,515,S,0,34,34,34,,,,,2,0.188946962357,,,pu,1,sllip_013,61.3784716785,2C,auditory,2020_Jan_25_1447,
pu.wav,2,3,43,516,S,0,35,35,35,,,,,2,0.422090768814,,,pu,1,sllip_013,61.3784716785,2C,auditory,2020_Jan_25_1447,
bu.wav,4,1,44,517,S,0,36,36,36,,,,,2,0.305709838867,,,pu,1,sllip_013,61.3784716785,2C,auditory,2020_Jan_25_1447,
pa.wav,4,2,44,518,S,0,37,37,37,,,,,2,0.24137711525,,,pu,1,sllip_013,61.3784716785,2C,auditory,2020_Jan_25_1447,
da.wav,4,3,44,519,S,0,38,38,38,,,,,2,0.154183149338,,,pu,1,sllip_013,61.3784716785,2C,auditory,2020_Jan_25_1447,
ta.wav,3,1,44,520,S,0,39,39,39,,,,,2,0.442361831665,,,pu,1,sllip_013,61.3784716785,2C,auditory,2020_Jan_25_1447,
ti.wav,3,2,44,521,S,0,40,40,40,,,,,2,0.291298151016,,,pu,1,sllip_013,61.3784716785,2C,auditory,2020_Jan_25_1447,
du.wav,3,3,44,522,S,0,41,41,41,,,,,2,0.173694133759,,,pu,1,sllip_013,61.3784716785,2C,auditory,2020_Jan_25_1447,
pi.wav,1,1,44,523,S,0,42,42,42,,,,,2,0.389907836914,,,pu,1,sllip_013,61.3784716785,2C,auditory,2020_Jan_25_1447,
tu.wav,1,2,44,524,S,0,43,43,43,,,,,2,0.288730144501,,,pu,1,sllip_013,61.3784716785,2C,auditory,2020_Jan_25_1447,
bi.wav,1,3,44,525,S,0,44,44,44,,,,,2,0.155542850494,,,pu,1,sllip_013,61.3784716785,2C,auditory,2020_Jan_25_1447,
di.wav,2,1,44,526,S,0,45,45,45,,,,,2,0.456609964371,,,pu,1,sllip_013,61.3784716785,2C,auditory,2020_Jan_25_1447,
ba.wav,2,2,44,527,S,0,46,46,46,,,,,2,0.321912050247,,,pu,1,sllip_013,61.3784716785,2C,auditory,2020_Jan_25_1447,
pu.wav,2,3,44,528,S,0,47,47,47,,,,,2,0.207793951035,,,pu,1,sllip_013,61.3784716785,2C,auditory,2020_Jan_25_1447,
bu.wav,4,1,45,529,S,0,48,48,48,,,,,2,0.103749990463,,,pu,1,sllip_013,61.3784716785,2C,auditory,2020_Jan_25_1447,
pa.wav,4,2,45,530,S,0,49,49,49,,,,,2,0.352555990219,,,pu,1,sllip_013,61.3784716785,2C,auditory,2020_Jan_25_1447,
da.wav,4,3,45,531,S,0,50,50,50,,,,,2,0.272816181183,,,pu,1,sllip_013,61.3784716785,2C,auditory,2020_Jan_25_1447,
pi.wav,1,1,45,532,S,0,51,51,51,,,,,2,0.204977035522,,,pu,1,sllip_013,61.3784716785,2C,auditory,2020_Jan_25_1447,
tu.wav,1,2,45,533,S,0,52,52,52,,,,,2,0.105195999146,,,pu,1,sllip_013,61.3784716785,2C,auditory,2020_Jan_25_1447,
bi.wav,1,3,45,534,S,0,53,53,53,,,,,2,0.289300918579,,,pu,1,sllip_013,61.3784716785,2C,auditory,2020_Jan_25_1447,
ta.wav,3,1,45,535,S,0,54,54,54,,,,,2,0.187618970871,,,pu,1,sllip_013,61.3784716785,2C,auditory,2020_Jan_25_1447,
ti.wav,3,2,45,536,S,0,55,55,55,,,,,2,0.352390050888,,,pu,1,sllip_013,61.3784716785,2C,auditory,2020_Jan_25_1447,
du.wav,3,3,45,537,S,0,56,56,56,,,,,2,0.256204128265,,,pu,1,sllip_013,61.3784716785,2C,auditory,2020_Jan_25_1447,
bu.wav,4,1,46,538,S,0,57,57,57,,,,,2,0.17444396019,,,pu,1,sllip_013,61.3784716785,2C,auditory,2020_Jan_25_1447,
pa.wav,4,2,46,539,S,0,58,58,58,,,,,None,,,,pu,1,sllip_013,61.3784716785,2C,auditory,2020_Jan_25_1447,
da.wav,4,3,46,540,S,0,59,59,59,,,,,1,0.320013999939,,,pu,1,sllip_013,61.3784716785,2C,auditory,2020_Jan_25_1447,
pi.wav,1,1,46,541,S,0,60,60,60,,,,,1,0.191967010498,,,pu,1,sllip_013,61.3784716785,2C,auditory,2020_Jan_25_1447,
tu.wav,1,2,46,542,S,0,61,61,61,,,,,1,0.174149990082,,,pu,1,sllip_013,61.3784716785,2C,auditory,2020_Jan_25_1447,
bi.wav,1,3,46,543,S,0,62,62,62,,,,,1,0.10714006424,,,pu,1,sllip_013,61.3784716785,2C,auditory,2020_Jan_25_1447,
ta.wav,3,1,46,544,S,0,63,63,63,,,,,1,0.051707983017,,,pu,1,sllip_013,61.3784716785,2C,auditory,2020_Jan_25_1447,
ti.wav,3,2,46,545,S,0,64,64,64,,,,,1,0.172967910767,,,pu,1,sllip_013,61.3784716785,2C,auditory,2020_Jan_25_1447,
du.wav,3,3,46,546,S,0,65,65,65,,,,,1,0.204733848572,,,pu,1,sllip_013,61.3784716785,2C,auditory,2020_Jan_25_1447,
di.wav,2,1,45,547,S,0,66,66,66,,,,,1,0.0921158790588,,,pu,1,sllip_013,61.3784716785,2C,auditory,2020_Jan_25_1447,
ba.wav,2,2,45,548,S,0,67,67,67,,,,,None,,,,pu,1,sllip_013,61.3784716785,2C,auditory,2020_Jan_25_1447,
pu.wav,2,3,45,549,S,0,68,68,68,,,,,None,,,,pu,1,sllip_013,61.3784716785,2C,auditory,2020_Jan_25_1447,
bu.wav,4,1,47,550,S,0,69,69,69,,,,,None,,,,pu,1,sllip_013,61.3784716785,2C,auditory,2020_Jan_25_1447,
pa.wav,4,2,47,551,S,0,70,70,70,,,,,1,0.0563299655914,,,pu,1,sllip_013,61.3784716785,2C,auditory,2020_Jan_25_1447,
da.wav,4,3,47,552,S,0,71,71,71,,,,,1,0.108419179916,,,pu,1,sllip_013,61.3784716785,2C,auditory,2020_Jan_25_1447,
di.wav,2,1,46,553,S,0,72,72,72,,,,,1,0.458162069321,,,pu,1,sllip_013,61.3784716785,2C,auditory,2020_Jan_25_1447,
ba.wav,2,2,46,554,S,0,73,73,73,,,,,None,,,,pu,1,sllip_013,61.3784716785,2C,auditory,2020_Jan_25_1447,
pu.wav,2,3,46,555,S,0,74,74,74,,,,,None,,,,pu,1,sllip_013,61.3784716785,2C,auditory,2020_Jan_25_1447,
ta.wav,3,1,47,556,S,0,75,75,75,,,,,None,,,,pu,1,sllip_013,61.3784716785,2C,auditory,2020_Jan_25_1447,
ti.wav,3,2,47,557,S,0,76,76,76,,,,,None,,,,pu,1,sllip_013,61.3784716785,2C,auditory,2020_Jan_25_1447,
du.wav,3,3,47,558,S,0,77,77,77,,,,,2,0.236623048782,,,pu,1,sllip_013,61.3784716785,2C,auditory,2020_Jan_25_1447,
pi.wav,1,1,47,559,S,0,78,78,78,,,,,None,,,,pu,1,sllip_013,61.3784716785,2C,auditory,2020_Jan_25_1447,
tu.wav,1,2,47,560,S,0,79,79,79,,,,,2,0.365031957626,,,pu,1,sllip_013,61.3784716785,2C,auditory,2020_Jan_25_1447,
bi.wav,1,3,47,561,S,0,80,80,80,,,,,None,,,,pu,1,sllip_013,61.3784716785,2C,auditory,2020_Jan_25_1447,
di.wav,2,1,47,562,S,0,81,81,81,,,,,None,,,,pu,1,sllip_013,61.3784716785,2C,auditory,2020_Jan_25_1447,
ba.wav,2,2,47,563,S,0,82,82,82,,,,,2,0.0729720592499,,,pu,1,sllip_013,61.3784716785,2C,auditory,2020_Jan_25_1447,
pu.wav,2,3,47,564,S,0,83,83,83,,,,,None,,,,pu,1,sllip_013,61.3784716785,2C,auditory,2020_Jan_25_1447,
ta.wav,3,1,48,565,S,0,84,84,84,,,,,None,,,,pu,1,sllip_013,61.3784716785,2C,auditory,2020_Jan_25_1447,
ti.wav,3,2,48,566,S,0,85,85,85,,,,,None,,,,pu,1,sllip_013,61.3784716785,2C,auditory,2020_Jan_25_1447,
du.wav,3,3,48,567,S,0,86,86,86,,,,,None,,,,pu,1,sllip_013,61.3784716785,2C,auditory,2020_Jan_25_1447,
bu.wav,4,1,48,568,S,0,87,87,87,,,,,2,0.15841794014,,,pu,1,sllip_013,61.3784716785,2C,auditory,2020_Jan_25_1447,
pa.wav,4,2,48,569,S,0,88,88,88,,,,,None,,,,pu,1,sllip_013,61.3784716785,2C,auditory,2020_Jan_25_1447,
da.wav,4,3,48,570,S,0,89,89,89,,,,,2,0.419330835342,,,pu,1,sllip_013,61.3784716785,2C,auditory,2020_Jan_25_1447,
pi.wav,1,1,48,571,S,0,90,90,90,,,,,2,0.352735042572,,,pu,1,sllip_013,61.3784716785,2C,auditory,2020_Jan_25_1447,
tu.wav,1,2,48,572,S,0,91,91,91,,,,,2,0.257217884064,,,pu,1,sllip_013,61.3784716785,2C,auditory,2020_Jan_25_1447,
bi.wav,1,3,48,573,S,0,92,92,92,,,,,2,0.189167022705,,,pu,1,sllip_013,61.3784716785,2C,auditory,2020_Jan_25_1447,
di.wav,2,1,48,574,S,0,93,93,93,,,,,2,0.120697021484,,,pu,1,sllip_013,61.3784716785,2C,auditory,2020_Jan_25_1447,
ba.wav,2,2,48,575,S,0,94,94,94,,,,,2,0.457134962082,,,pu,1,sllip_013,61.3784716785,2C,auditory,2020_Jan_25_1447,
pu.wav,2,3,48,576,S,0,95,95,95,,,,,None,,,,pu,1,sllip_013,61.3784716785,2C,auditory,2020_Jan_25_1447,
silence.wav,0,0,0,0,B,0,96,96,96,,,,,2,0.0254311561584,,,pu,1,sllip_013,61.3784716785,2C,auditory,2020_Jan_25_1447,
silence.wav,0,0,0,0,B,0,97,97,97,,,,,2,0.427374124527,,,pu,1,sllip_013,61.3784716785,2C,auditory,2020_Jan_25_1447,
silence.wav,0,0,0,0,B,0,98,98,98,,,,,2,0.319967031479,,,pu,1,sllip_013,61.3784716785,2C,auditory,2020_Jan_25_1447,
silence.wav,0,0,0,0,B,0,99,99,99,,,,,2,0.203454971313,,,pu,1,sllip_013,61.3784716785,2C,auditory,2020_Jan_25_1447,
silence.wav,0,0,0,0,B,0,100,100,100,,,,,2,0.0874700546265,,,pu,1,sllip_013,61.3784716785,2C,auditory,2020_Jan_25_1447,
silence.wav,0,0,0,0,B,0,101,101,101,,,,,None,,,,pu,1,sllip_013,61.3784716785,2C,auditory,2020_Jan_25_1447,
silence.wav,0,0,0,0,B,0,102,102,102,,,,,2,0.389022827148,,,pu,1,sllip_013,61.3784716785,2C,auditory,2020_Jan_25_1447,
silence.wav,0,0,0,0,B,0,103,103,103,,,,,2,0.269016027451,,,pu,1,sllip_013,61.3784716785,2C,auditory,2020_Jan_25_1447,
silence.wav,0,0,0,0,B,0,104,104,104,,,,,2,0.176789045334,,,pu,1,sllip_013,61.3784716785,2C,auditory,2020_Jan_25_1447,
silence.wav,0,0,0,0,B,0,105,105,105,,,,,2,0.372830867767,,,pu,1,sllip_013,61.3784716785,2C,auditory,2020_Jan_25_1447,
silence.wav,0,0,0,0,B,0,106,106,106,,,,,2,0.271354913712,,,pu,1,sllip_013,61.3784716785,2C,auditory,2020_Jan_25_1447,
silence.wav,0,0,0,0,B,0,107,107,107,,,,,2,0.207077980042,,,pu,1,sllip_013,61.3784716785,2C,auditory,2020_Jan_25_1447,
silence.wav,0,0,0,0,B,0,108,108,108,,,,,2,0.141499042511,,,pu,1,sllip_013,61.3784716785,2C,auditory,2020_Jan_25_1447,
4A.wav,0,1,1,481,R,,,,,0,0,0,0,,,2,0.245882987976,pu,1,sllip_013,61.3784716785,2C,auditory,2020_Jan_25_1447,
2B.wav,0,2,1,482,R,,,,,0,1,1,1,,,2,0.155705928802,pu,1,sllip_013,61.3784716785,2C,auditory,2020_Jan_25_1447,
4B.wav,0,3,1,483,R,,,,,0,2,2,2,,,2,0.103765964508,pu,1,sllip_013,61.3784716785,2C,auditory,2020_Jan_25_1447,
1A.wav,0,1,1,484,R,,,,,0,3,3,3,,,2,0.0699980258942,pu,1,sllip_013,61.3784716785,2C,auditory,2020_Jan_25_1447,
2C.wav,0,2,1,485,R,,,,,0,4,4,4,,,2,0.0332229137421,pu,1,sllip_013,61.3784716785,2C,auditory,2020_Jan_25_1447,
3B.wav,0,3,1,486,R,,,,,0,5,5,5,,,2,0.0365309715271,pu,1,sllip_013,61.3784716785,2C,auditory,2020_Jan_25_1447,
3A.wav,0,1,1,487,R,,,,,0,6,6,6,,,None,,pu,1,sllip_013,61.3784716785,2C,auditory,2020_Jan_25_1447,
3C.wav,0,2,1,488,R,,,,,0,7,7,7,,,None,,pu,1,sllip_013,61.3784716785,2C,auditory,2020_Jan_25_1447,
4C.wav,0,3,1,489,R,,,,,0,8,8,8,,,None,,pu,1,sllip_013,61.3784716785,2C,auditory,2020_Jan_25_1447,
4A.wav,0,1,1,490,R,,,,,0,9,9,9,,,2,0.272313833237,pu,1,sllip_013,61.3784716785,2C,auditory,2020_Jan_25_1447,
1C.wav,0,2,1,491,R,,,,,0,10,10,10,,,2,0.387880086899,pu,1,sllip_013,61.3784716785,2C,auditory,2020_Jan_25_1447,
2A.wav,0,3,1,492,R,,,,,0,11,11,11,,,None,,pu,1,sllip_013,61.3784716785,2C,auditory,2020_Jan_25_1447,
2A.wav,0,1,1,493,R,,,,,0,12,12,12,,,None,,pu,1,sllip_013,61.3784716785,2C,auditory,2020_Jan_25_1447,
1B.wav,0,2,1,494,R,,,,,0,13,13,13,,,None,,pu,1,sllip_013,61.3784716785,2C,auditory,2020_Jan_25_1447,
3B.wav,0,3,1,495,R,,,,,0,14,14,14,,,2,0.124038934708,pu,1,sllip_013,61.3784716785,2C,auditory,2020_Jan_25_1447,
4C.wav,0,1,1,496,R,,,,,0,15,15,15,,,None,,pu,1,sllip_013,61.3784716785,2C,auditory,2020_Jan_25_1447,
3A.wav,0,2,1,497,R,,,,,0,16,16,16,,,None,,pu,1,sllip_013,61.3784716785,2C,auditory,2020_Jan_25_1447,
1B.wav,0,3,1,498,R,,,,,0,17,17,17,,,None,,pu,1,sllip_013,61.3784716785,2C,auditory,2020_Jan_25_1447,
4B.wav,0,1,1,499,R,,,,,0,18,18,18,,,None,,pu,1,sllip_013,61.3784716785,2C,auditory,2020_Jan_25_1447,
1A.wav,0,2,1,500,R,,,,,0,19,19,19,,,None,,pu,1,sllip_013,61.3784716785,2C,auditory,2020_Jan_25_1447,
1C.wav,0,3,1,501,R,,,,,0,20,20,20,,,None,,pu,1,sllip_013,61.3784716785,2C,auditory,2020_Jan_25_1447,
2C.wav,0,1,1,502,R,,,,,0,21,21,21,,,None,,pu,1,sllip_013,61.3784716785,2C,auditory,2020_Jan_25_1447,
2B.wav,0,2,1,503,R,,,,,0,22,22,22,,,None,,pu,1,sllip_013,61.3784716785,2C,auditory,2020_Jan_25_1447,
3C.wav,0,3,1,504,R,,,,,0,23,23,23,,,None,,pu,1,sllip_013,61.3784716785,2C,auditory,2020_Jan_25_1447,
3B.wav,0,1,1,505,R,,,,,0,24,24,24,,,None,,pu,1,sllip_013,61.3784716785,2C,auditory,2020_Jan_25_1447,
3B.wav,0,2,1,506,R,,,,,0,25,25,25,,,None,,pu,1,sllip_013,61.3784716785,2C,auditory,2020_Jan_25_1447,
4A.wav,0,3,1,507,R,,,,,0,26,26,26,,,None,,pu,1,sllip_013,61.3784716785,2C,auditory,2020_Jan_25_1447,
4A.wav,0,1,1,508,R,,,,,0,27,27,27,,,None,,pu,1,sllip_013,61.3784716785,2C,auditory,2020_Jan_25_1447,
1B.wav,0,2,1,509,R,,,,,0,28,28,28,,,None,,pu,1,sllip_013,61.3784716785,2C,auditory,2020_Jan_25_1447,
2C.wav,0,3,1,510,R,,,,,0,29,29,29,,,None,,pu,1,sllip_013,61.3784716785,2C,auditory,2020_Jan_25_1447,
1A.wav,0,1,1,511,R,,,,,0,30,30,30,,,None,,pu,1,sllip_013,61.3784716785,2C,auditory,2020_Jan_25_1447,
3C.wav,0,2,1,512,R,,,,,0,31,31,31,,,None,,pu,1,sllip_013,61.3784716785,2C,auditory,2020_Jan_25_1447,
1C.wav,0,3,1,513,R,,,,,0,32,32,32,,,None,,pu,1,sllip_013,61.3784716785,2C,auditory,2020_Jan_25_1447,
4C.wav,0,1,1,514,R,,,,,0,33,33,33,,,None,,pu,1,sllip_013,61.3784716785,2C,auditory,2020_Jan_25_1447,
2B.wav,0,2,1,515,R,,,,,0,34,34,34,,,None,,pu,1,sllip_013,61.3784716785,2C,auditory,2020_Jan_25_1447,
1A.wav,0,3,1,516,R,,,,,0,35,35,35,,,None,,pu,1,sllip_013,61.3784716785,2C,auditory,2020_Jan_25_1447,
1B.wav,0,1,1,517,R,,,,,0,36,36,36,,,None,,pu,1,sllip_013,61.3784716785,2C,auditory,2020_Jan_25_1447,
2B.wav,0,2,1,518,R,,,,,0,37,37,37,,,None,,pu,1,sllip_013,61.3784716785,2C,auditory,2020_Jan_25_1447,
2A.wav,0,3,1,519,R,,,,,0,38,38,38,,,None,,pu,1,sllip_013,61.3784716785,2C,auditory,2020_Jan_25_1447,
3A.wav,0,1,1,520,R,,,,,0,39,39,39,,,None,,pu,1,sllip_013,61.3784716785,2C,auditory,2020_Jan_25_1447,
4B.wav,0,2,1,521,R,,,,,0,40,40,40,,,None,,pu,1,sllip_013,61.3784716785,2C,auditory,2020_Jan_25_1447,
2C.wav,0,3,1,522,R,,,,,0,41,41,41,,,None,,pu,1,sllip_013,61.3784716785,2C,auditory,2020_Jan_25_1447,
3C.wav,0,1,1,523,R,,,,,0,42,42,42,,,None,,pu,1,sllip_013,61.3784716785,2C,auditory,2020_Jan_25_1447,
4C.wav,0,2,1,524,R,,,,,0,43,43,43,,,None,,pu,1,sllip_013,61.3784716785,2C,auditory,2020_Jan_25_1447,
1C.wav,0,3,1,525,R,,,,,0,44,44,44,,,None,,pu,1,sllip_013,61.3784716785,2C,auditory,2020_Jan_25_1447,
3A.wav,0,1,1,526,R,,,,,0,45,45,45,,,None,,pu,1,sllip_013,61.3784716785,2C,auditory,2020_Jan_25_1447,
4B.wav,0,2,1,527,R,,,,,0,46,46,46,,,None,,pu,1,sllip_013,61.3784716785,2C,auditory,2020_Jan_25_1447,
2A.wav,0,3,1,528,R,,,,,0,47,47,47,,,None,,pu,1,sllip_013,61.3784716785,2C,auditory,2020_Jan_25_1447,
4A.wav,0,1,1,529,R,,,,,0,48,48,48,,,None,,pu,1,sllip_013,61.3784716785,2C,auditory,2020_Jan_25_1447,
3A.wav,0,2,1,530,R,,,,,0,49,49,49,,,None,,pu,1,sllip_013,61.3784716785,2C,auditory,2020_Jan_25_1447,
2A.wav,0,3,1,531,R,,,,,0,50,50,50,,,None,,pu,1,sllip_013,61.3784716785,2C,auditory,2020_Jan_25_1447,
4B.wav,0,1,1,532,R,,,,,0,51,51,51,,,None,,pu,1,sllip_013,61.3784716785,2C,auditory,2020_Jan_25_1447,
2A.wav,0,2,1,533,R,,,,,0,52,52,52,,,None,,pu,1,sllip_013,61.3784716785,2C,auditory,2020_Jan_25_1447,
2B.wav,0,3,1,534,R,,,,,0,53,53,53,,,None,,pu,1,sllip_013,61.3784716785,2C,auditory,2020_Jan_25_1447,
2B.wav,0,1,1,535,R,,,,,0,54,54,54,,,None,,pu,1,sllip_013,61.3784716785,2C,auditory,2020_Jan_25_1447,
2C.wav,0,2,1,536,R,,,,,0,55,55,55,,,2,0.339837789536,pu,1,sllip_013,61.3784716785,2C,auditory,2020_Jan_25_1447,
4B.wav,0,3,1,537,R,,,,,0,56,56,56,,,2,0.242139816284,pu,1,sllip_013,61.3784716785,2C,auditory,2020_Jan_25_1447,
3B.wav,0,1,1,538,R,,,,,0,57,57,57,,,2,0.438059091568,pu,1,sllip_013,61.3784716785,2C,auditory,2020_Jan_25_1447,
2B.wav,0,2,1,539,R,,,,,0,58,58,58,,,2,0.255607843399,pu,1,sllip_013,61.3784716785,2C,auditory,2020_Jan_25_1447,
4A.wav,0,3,1,540,R,,,,,0,59,59,59,,,2,0.391706943512,pu,1,sllip_013,61.3784716785,2C,auditory,2020_Jan_25_1447,
3C.wav,0,1,1,541,R,,,,,0,60,60,60,,,2,0.242996931076,pu,1,sllip_013,61.3784716785,2C,auditory,2020_Jan_25_1447,
2C.wav,0,2,1,542,R,,,,,0,61,61,61,,,2,0.376314878464,pu,1,sllip_013,61.3784716785,2C,auditory,2020_Jan_25_1447,
4C.wav,0,3,1,543,R,,,,,0,62,62,62,,,2,0.205383062363,pu,1,sllip_013,61.3784716785,2C,auditory,2020_Jan_25_1447,
3C.wav,0,1,1,544,R,,,,,0,63,63,63,,,2,0.373862028122,pu,1,sllip_013,61.3784716785,2C,auditory,2020_Jan_25_1447,
1A.wav,0,2,1,545,R,,,,,0,64,64,64,,,2,0.20556807518,pu,1,sllip_013,61.3784716785,2C,auditory,2020_Jan_25_1447,
4C.wav,0,3,1,546,R,,,,,0,65,65,65,,,2,0.421339988708,pu,1,sllip_013,61.3784716785,2C,auditory,2020_Jan_25_1447,
2C.wav,0,1,1,547,R,,,,,0,66,66,66,,,2,0.304920911789,pu,1,sllip_013,61.3784716785,2C,auditory,2020_Jan_25_1447,
1C.wav,0,2,1,548,R,,,,,0,67,67,67,,,2,0.192105054855,pu,1,sllip_013,61.3784716785,2C,auditory,2020_Jan_25_1447,
1B.wav,0,3,1,549,R,,,,,0,68,68,68,,,2,0.373610019684,pu,1,sllip_013,61.3784716785,2C,auditory,2020_Jan_25_1447,
2A.wav,0,1,1,550,R,,,,,0,69,69,69,,,None,,pu,1,sllip_013,61.3784716785,2C,auditory,2020_Jan_25_1447,
3A.wav,0,2,1,551,R,,,,,0,70,70,70,,,2,0.206762075424,pu,1,sllip_013,61.3784716785,2C,auditory,2020_Jan_25_1447,
3B.wav,0,3,1,552,R,,,,,0,71,71,71,,,2,0.387543916702,pu,1,sllip_013,61.3784716785,2C,auditory,2020_Jan_25_1447,
1A.wav,0,1,1,553,R,,,,,0,72,72,72,,,2,0.253285169601,pu,1,sllip_013,61.3784716785,2C,auditory,2020_Jan_25_1447,
2C.wav,0,2,1,554,R,,,,,0,73,73,73,,,2,0.107448101044,pu,1,sllip_013,61.3784716785,2C,auditory,2020_Jan_25_1447,
2B.wav,0,3,1,555,R,,,,,0,74,74,74,,,2,0.056382894516,pu,1,sllip_013,61.3784716785,2C,auditory,2020_Jan_25_1447,
4B.wav,0,1,1,556,R,,,,,0,75,75,75,,,None,,pu,1,sllip_013,61.3784716785,2C,auditory,2020_Jan_25_1447,
1B.wav,0,2,1,557,R,,,,,0,76,76,76,,,2,0.0923738479614,pu,1,sllip_013,61.3784716785,2C,auditory,2020_Jan_25_1447,
4B.wav,0,3,1,558,R,,,,,0,77,77,77,,,2,0.407049179077,pu,1,sllip_013,61.3784716785,2C,auditory,2020_Jan_25_1447,
1B.wav,0,1,1,559,R,,,,,0,78,78,78,,,2,0.340259075165,pu,1,sllip_013,61.3784716785,2C,auditory,2020_Jan_25_1447,
4A.wav,0,2,1,560,R,,,,,0,79,79,79,,,2,0.273292064667,pu,1,sllip_013,61.3784716785,2C,auditory,2020_Jan_25_1447,
3A.wav,0,3,1,561,R,,,,,0,80,80,80,,,2,0.285439968109,pu,1,sllip_013,61.3784716785,2C,auditory,2020_Jan_25_1447,
2A.wav,0,1,1,562,R,,,,,0,81,81,81,,,None,,pu,1,sllip_013,61.3784716785,2C,auditory,2020_Jan_25_1447,
4A.wav,0,2,1,563,R,,,,,0,82,82,82,,,None,,pu,1,sllip_013,61.3784716785,2C,auditory,2020_Jan_25_1447,
3B.wav,0,3,1,564,R,,,,,0,83,83,83,,,2,0.284658193588,pu,1,sllip_013,61.3784716785,2C,auditory,2020_Jan_25_1447,
4C.wav,0,1,1,565,R,,,,,0,84,84,84,,,2,0.270869016647,pu,1,sllip_013,61.3784716785,2C,auditory,2020_Jan_25_1447,
1A.wav,0,2,1,566,R,,,,,0,85,85,85,,,None,,pu,1,sllip_013,61.3784716785,2C,auditory,2020_Jan_25_1447,
1C.wav,0,3,1,567,R,,,,,0,86,86,86,,,2,0.301938056946,pu,1,sllip_013,61.3784716785,2C,auditory,2020_Jan_25_1447,
3B.wav,0,1,1,568,R,,,,,0,87,87,87,,,2,0.272228956223,pu,1,sllip_013,61.3784716785,2C,auditory,2020_Jan_25_1447,
4C.wav,0,2,1,569,R,,,,,0,88,88,88,,,None,,pu,1,sllip_013,61.3784716785,2C,auditory,2020_Jan_25_1447,
3C.wav,0,3,1,570,R,,,,,0,89,89,89,,,None,,pu,1,sllip_013,61.3784716785,2C,auditory,2020_Jan_25_1447,
1C.wav,0,1,1,571,R,,,,,0,90,90,90,,,None,,pu,1,sllip_013,61.3784716785,2C,auditory,2020_Jan_25_1447,
3A.wav,0,2,1,572,R,,,,,0,91,91,91,,,None,,pu,1,sllip_013,61.3784716785,2C,auditory,2020_Jan_25_1447,
1C.wav,0,3,1,573,R,,,,,0,92,92,92,,,None,,pu,1,sllip_013,61.3784716785,2C,auditory,2020_Jan_25_1447,
1B.wav,0,1,1,574,R,,,,,0,93,93,93,,,None,,pu,1,sllip_013,61.3784716785,2C,auditory,2020_Jan_25_1447,
3C.wav,0,2,1,575,R,,,,,0,94,94,94,,,None,,pu,1,sllip_013,61.3784716785,2C,auditory,2020_Jan_25_1447,
1A.wav,0,3,1,576,R,,,,,0,95,95,95,,,None,,pu,1,sllip_013,61.3784716785,2C,auditory,2020_Jan_25_1447,
silence.wav,0,0,0,0,B,,,,,0,96,96,96,,,None,,pu,1,sllip_013,61.3784716785,2C,auditory,2020_Jan_25_1447,
silence.wav,0,0,0,0,B,,,,,0,97,97,97,,,None,,pu,1,sllip_013,61.3784716785,2C,auditory,2020_Jan_25_1447,
silence.wav,0,0,0,0,B,,,,,0,98,98,98,,,None,,pu,1,sllip_013,61.3784716785,2C,auditory,2020_Jan_25_1447,
silence.wav,0,0,0,0,B,,,,,0,99,99,99,,,None,,pu,1,sllip_013,61.3784716785,2C,auditory,2020_Jan_25_1447,
silence.wav,0,0,0,0,B,,,,,0,100,100,100,,,None,,pu,1,sllip_013,61.3784716785,2C,auditory,2020_Jan_25_1447,
silence.wav,0,0,0,0,B,,,,,0,101,101,101,,,None,,pu,1,sllip_013,61.3784716785,2C,auditory,2020_Jan_25_1447,
silence.wav,0,0,0,0,B,,,,,0,102,102,102,,,None,,pu,1,sllip_013,61.3784716785,2C,auditory,2020_Jan_25_1447,
silence.wav,0,0,0,0,B,,,,,0,103,103,103,,,None,,pu,1,sllip_013,61.3784716785,2C,auditory,2020_Jan_25_1447,
silence.wav,0,0,0,0,B,,,,,0,104,104,104,,,None,,pu,1,sllip_013,61.3784716785,2C,auditory,2020_Jan_25_1447,
silence.wav,0,0,0,0,B,,,,,0,105,105,105,,,None,,pu,1,sllip_013,61.3784716785,2C,auditory,2020_Jan_25_1447,
silence.wav,0,0,0,0,B,,,,,0,106,106,106,,,None,,pu,1,sllip_013,61.3784716785,2C,auditory,2020_Jan_25_1447,
silence.wav,0,0,0,0,B,,,,,0,107,107,107,,,None,,pu,1,sllip_013,61.3784716785,2C,auditory,2020_Jan_25_1447,
silence.wav,0,0,0,0,B,,,,,0,108,108,108,,,2,0.368435144424,pu,1,sllip_013,61.3784716785,2C,auditory,2020_Jan_25_1447,
3B.wav,0,1,1,289,R,,,,,0,0,0,0,,,2,0.14613199234,pu,1,sllip_013,61.3784716785,2C,auditory,2020_Jan_25_1447,
1B.wav,0,2,1,290,R,,,,,0,1,1,1,,,2,0.424147129059,pu,1,sllip_013,61.3784716785,2C,auditory,2020_Jan_25_1447,
1C.wav,0,3,1,291,R,,,,,0,2,2,2,,,None,,pu,1,sllip_013,61.3784716785,2C,auditory,2020_Jan_25_1447,
4C.wav,0,1,1,292,R,,,,,0,3,3,3,,,None,,pu,1,sllip_013,61.3784716785,2C,auditory,2020_Jan_25_1447,
2A.wav,0,2,1,293,R,,,,,0,4,4,4,,,None,,pu,1,sllip_013,61.3784716785,2C,auditory,2020_Jan_25_1447,
1B.wav,0,3,1,294,R,,,,,0,5,5,5,,,2,0.0694401264191,pu,1,sllip_013,61.3784716785,2C,auditory,2020_Jan_25_1447,
4A.wav,0,1,1,295,R,,,,,0,6,6,6,,,None,,pu,1,sllip_013,61.3784716785,2C,auditory,2020_Jan_25_1447,
1A.wav,0,2,1,296,R,,,,,0,7,7,7,,,2,0.0369658470154,pu,1,sllip_013,61.3784716785,2C,auditory,2020_Jan_25_1447,
3C.wav,0,3,1,297,R,,,,,0,8,8,8,,,None,,pu,1,sllip_013,61.3784716785,2C,auditory,2020_Jan_25_1447,
3A.wav,0,1,1,298,R,,,,,0,9,9,9,,,None,,pu,1,sllip_013,61.3784716785,2C,auditory,2020_Jan_25_1447,
3C.wav,0,2,1,299,R,,,,,0,10,10,10,,,None,,pu,1,sllip_013,61.3784716785,2C,auditory,2020_Jan_25_1447,
4A.wav,0,3,1,300,R,,,,,0,11,11,11,,,None,,pu,1,sllip_013,61.3784716785,2C,auditory,2020_Jan_25_1447,
3C.wav,0,1,1,301,R,,,,,0,12,12,12,,,2,0.208822011948,pu,1,sllip_013,61.3784716785,2C,auditory,2020_Jan_25_1447,
2C.wav,0,2,1,302,R,,,,,0,13,13,13,,,2,0.290150165558,pu,1,sllip_013,61.3784716785,2C,auditory,2020_Jan_25_1447,
3A.wav,0,3,1,303,R,,,,,0,14,14,14,,,2,0.33860206604,pu,1,sllip_013,61.3784716785,2C,auditory,2020_Jan_25_1447,
3A.wav,0,1,1,304,R,,,,,0,15,15,15,,,2,0.305176973343,pu,1,sllip_013,61.3784716785,2C,auditory,2020_Jan_25_1447,
2B.wav,0,2,1,305,R,,,,,0,16,16,16,,,2,0.271034955978,pu,1,sllip_013,61.3784716785,2C,auditory,2020_Jan_25_1447,
4C.wav,0,3,1,306,R,,,,,0,17,17,17,,,2,0.289958000183,pu,1,sllip_013,61.3784716785,2C,auditory,2020_Jan_25_1447,
1A.wav,0,1,1,307,R,,,,,0,18,18,18,,,None,,pu,1,sllip_013,61.3784716785,2C,auditory,2020_Jan_25_1447,
3B.wav,0,2,1,308,R,,,,,0,19,19,19,,,None,,pu,1,sllip_013,61.3784716785,2C,auditory,2020_Jan_25_1447,
4B.wav,0,3,1,309,R,,,,,0,20,20,20,,,None,,pu,1,sllip_013,61.3784716785,2C,auditory,2020_Jan_25_1447,
1C.wav,0,1,1,310,R,,,,,0,21,21,21,,,None,,pu,1,sllip_013,61.3784716785,2C,auditory,2020_Jan_25_1447,
3B.wav,0,2,1,311,R,,,,,0,22,22,22,,,2,0.0251479148865,pu,1,sllip_013,61.3784716785,2C,auditory,2020_Jan_25_1447,
4B.wav,0,3,1,312,R,,,,,0,23,23,23,,,2,0.170384883881,pu,1,sllip_013,61.3784716785,2C,auditory,2020_Jan_25_1447,
4A.wav,0,1,1,337,R,,,,,0,24,24,24,,,2,0.153696060181,pu,1,sllip_013,61.3784716785,2C,auditory,2020_Jan_25_1447,
3B.wav,0,2,1,338,R,,,,,0,25,25,25,,,2,0.141328811646,pu,1,sllip_013,61.3784716785,2C,auditory,2020_Jan_25_1447,
1C.wav,0,3,1,339,R,,,,,0,26,26,26,,,2,0.0893797874451,pu,1,sllip_013,61.3784716785,2C,auditory,2020_Jan_25_1447,
3A.wav,0,1,1,340,R,,,,,0,27,27,27,,,2,0.0881378650665,pu,1,sllip_013,61.3784716785,2C,auditory,2020_Jan_25_1447,
2C.wav,0,2,1,341,R,,,,,0,28,28,28,,,None,,pu,1,sllip_013,61.3784716785,2C,auditory,2020_Jan_25_1447,
4B.wav,0,3,1,342,R,,,,,0,29,29,29,,,2,0.00549912452698,pu,1,sllip_013,61.3784716785,2C,auditory,2020_Jan_25_1447,
3A.wav,0,1,1,343,R,,,,,0,30,30,30,,,2,0.0840902328491,pu,1,sllip_013,61.3784716785,2C,auditory,2020_Jan_25_1447,
2A.wav,0,2,1,344,R,,,,,0,31,31,31,,,None,,pu,1,sllip_013,61.3784716785,2C,auditory,2020_Jan_25_1447,
1B.wav,0,3,1,345,R,,,,,0,32,32,32,,,None,,pu,1,sllip_013,61.3784716785,2C,auditory,2020_Jan_25_1447,
4A.wav,0,1,1,346,R,,,,,0,33,33,33,,,None,,pu,1,sllip_013,61.3784716785,2C,auditory,2020_Jan_25_1447,
2A.wav,0,2,1,347,R,,,,,0,34,34,34,,,None,,pu,1,sllip_013,61.3784716785,2C,auditory,2020_Jan_25_1447,
2B.wav,0,3,1,348,R,,,,,0,35,35,35,,,None,,pu,1,sllip_013,61.3784716785,2C,auditory,2020_Jan_25_1447,
3C.wav,0,1,1,349,R,,,,,0,36,36,36,,,None,,pu,1,sllip_013,61.3784716785,2C,auditory,2020_Jan_25_1447,
3C.wav,0,2,1,350,R,,,,,0,37,37,37,,,None,,pu,1,sllip_013,61.3784716785,2C,auditory,2020_Jan_25_1447,
2A.wav,0,3,1,351,R,,,,,0,38,38,38,,,None,,pu,1,sllip_013,61.3784716785,2C,auditory,2020_Jan_25_1447,
4B.wav,0,1,1,352,R,,,,,0,39,39,39,,,None,,pu,1,sllip_013,61.3784716785,2C,auditory,2020_Jan_25_1447,
4C.wav,0,2,1,353,R,,,,,0,40,40,40,,,None,,pu,1,sllip_013,61.3784716785,2C,auditory,2020_Jan_25_1447,
2C.wav,0,3,1,354,R,,,,,0,41,41,41,,,None,,pu,1,sllip_013,61.3784716785,2C,auditory,2020_Jan_25_1447,
2B.wav,0,1,1,355,R,,,,,0,42,42,42,,,None,,pu,1,sllip_013,61.3784716785,2C,auditory,2020_Jan_25_1447,
1A.wav,0,2,1,356,R,,,,,0,43,43,43,,,None,,pu,1,sllip_013,61.3784716785,2C,auditory,2020_Jan_25_1447,
2C.wav,0,3,1,357,R,,,,,0,44,44,44,,,None,,pu,1,sllip_013,61.3784716785,2C,auditory,2020_Jan_25_1447,
4C.wav,0,1,1,358,R,,,,,0,45,45,45,,,None,,pu,1,sllip_013,61.3784716785,2C,auditory,2020_Jan_25_1447,
2B.wav,0,2,1,359,R,,,,,0,46,46,46,,,None,,pu,1,sllip_013,61.3784716785,2C,auditory,2020_Jan_25_1447,
3B.wav,0,3,1,360,R,,,,,0,47,47,47,,,2,0.104328155518,pu,1,sllip_013,61.3784716785,2C,auditory,2020_Jan_25_1447,
2A.wav,0,1,1,313,R,,,,,0,48,48,48,,,2,0.0946180820465,pu,1,sllip_013,61.3784716785,2C,auditory,2020_Jan_25_1447,
3A.wav,0,2,1,314,R,,,,,0,49,49,49,,,2,0.104125022888,pu,1,sllip_013,61.3784716785,2C,auditory,2020_Jan_25_1447,
4A.wav,0,3,1,315,R,,,,,0,50,50,50,,,2,0.0410299301147,pu,1,sllip_013,61.3784716785,2C,auditory,2020_Jan_25_1447,
1B.wav,0,1,1,316,R,,,,,0,51,51,51,,,2,0.00550007820129,pu,1,sllip_013,61.3784716785,2C,auditory,2020_Jan_25_1447,
2B.wav,0,2,1,317,R,,,,,0,52,52,52,,,2,0.0885260105133,pu,1,sllip_013,61.3784716785,2C,auditory,2020_Jan_25_1447,
1C.wav,0,3,1,318,R,,,,,0,53,53,53,,,2,0.137943029404,pu,1,sllip_013,61.3784716785,2C,auditory,2020_Jan_25_1447,
1C.wav,0,1,1,319,R,,,,,0,54,54,54,,,None,,pu,1,sllip_013,61.3784716785,2C,auditory,2020_Jan_25_1447,
1B.wav,0,2,1,320,R,,,,,0,55,55,55,,,None,,pu,1,sllip_013,61.3784716785,2C,auditory,2020_Jan_25_1447,
2C.wav,0,3,1,321,R,,,,,0,56,56,56,,,None,,pu,1,sllip_013,61.3784716785,2C,auditory,2020_Jan_25_1447,
4A.wav,0,1,1,322,R,,,,,0,57,57,57,,,None,,pu,1,sllip_013,61.3784716785,2C,auditory,2020_Jan_25_1447,
4B.wav,0,2,1,323,R,,,,,0,58,58,58,,,None,,pu,1,sllip_013,61.3784716785,2C,auditory,2020_Jan_25_1447,
3C.wav,0,3,1,324,R,,,,,0,59,59,59,,,2,0.0669240951538,pu,1,sllip_013,61.3784716785,2C,auditory,2020_Jan_25_1447,
3B.wav,0,1,1,325,R,,,,,0,60,60,60,,,None,,pu,1,sllip_013,61.3784716785,2C,auditory,2020_Jan_25_1447,
4C.wav,0,2,1,326,R,,,,,0,61,61,61,,,None,,pu,1,sllip_013,61.3784716785,2C,auditory,2020_Jan_25_1447,
3C.wav,0,3,1,327,R,,,,,0,62,62,62,,,None,,pu,1,sllip_013,61.3784716785,2C,auditory,2020_Jan_25_1447,
4C.wav,0,1,1,328,R,,,,,0,63,63,63,,,None,,pu,1,sllip_013,61.3784716785,2C,auditory,2020_Jan_25_1447,
2B.wav,0,2,1,329,R,,,,,0,64,64,64,,,None,,pu,1,sllip_013,61.3784716785,2C,auditory,2020_Jan_25_1447,
1A.wav,0,3,1,330,R,,,,,0,65,65,65,,,2,0.255173921585,pu,1,sllip_013,61.3784716785,2C,auditory,2020_Jan_25_1447,
1A.wav,0,1,1,331,R,,,,,0,66,66,66,,,None,,pu,1,sllip_013,61.3784716785,2C,auditory,2020_Jan_25_1447,
2C.wav,0,2,1,332,R,,,,,0,67,67,67,,,2,0.322506904602,pu,1,sllip_013,61.3784716785,2C,auditory,2020_Jan_25_1447,
2A.wav,0,3,1,333,R,,,,,0,68,68,68,,,2,0.32047700882,pu,1,sllip_013,61.3784716785,2C,auditory,2020_Jan_25_1447,
3A.wav,0,1,1,334,R,,,,,0,69,69,69,,,2,0.273568868637,pu,1,sllip_013,61.3784716785,2C,auditory,2020_Jan_25_1447,
3B.wav,0,2,1,335,R,,,,,0,70,70,70,,,2,0.233986139297,pu,1,sllip_013,61.3784716785,2C,auditory,2020_Jan_25_1447,
4B.wav,0,3,1,336,R,,,,,0,71,71,71,,,2,0.206151008606,pu,1,sllip_013,61.3784716785,2C,auditory,2020_Jan_25_1447,
4B.wav,0,1,1,361,R,,,,,0,72,72,72,,,2,0.12219786644,pu,1,sllip_013,61.3784716785,2C,auditory,2020_Jan_25_1447,
4A.wav,0,2,1,362,R,,,,,0,73,73,73,,,2,0.0955448150635,pu,1,sllip_013,61.3784716785,2C,auditory,2020_Jan_25_1447,
2B.wav,0,3,1,363,R,,,,,0,74,74,74,,,2,0.0570390224457,pu,1,sllip_013,61.3784716785,2C,auditory,2020_Jan_25_1447,
1A.wav,0,1,1,364,R,,,,,0,75,75,75,,,2,0.0520451068878,pu,1,sllip_013,61.3784716785,2C,auditory,2020_Jan_25_1447,
4C.wav,0,2,1,365,R,,,,,0,76,76,76,,,2,0.00537705421448,pu,1,sllip_013,61.3784716785,2C,auditory,2020_Jan_25_1447,
2A.wav,0,3,1,366,R,,,,,0,77,77,77,,,2,0.0412731170654,pu,1,sllip_013,61.3784716785,2C,auditory,2020_Jan_25_1447,
3C.wav,0,1,1,367,R,,,,,0,78,78,78,,,None,,pu,1,sllip_013,61.3784716785,2C,auditory,2020_Jan_25_1447,
1B.wav,0,2,1,368,R,,,,,0,79,79,79,,,None,,pu,1,sllip_013,61.3784716785,2C,auditory,2020_Jan_25_1447,
1B.wav,0,3,1,369,R,,,,,0,80,80,80,,,2,0.291943073273,pu,1,sllip_013,61.3784716785,2C,auditory,2020_Jan_25_1447,
2C.wav,0,1,1,370,R,,,,,0,81,81,81,,,None,,pu,1,sllip_013,61.3784716785,2C,auditory,2020_Jan_25_1447,
2A.wav,0,2,1,371,R,,,,,0,82,82,82,,,None,,pu,1,sllip_013,61.3784716785,2C,auditory,2020_Jan_25_1447,
4B.wav,0,3,1,372,R,,,,,0,83,83,83,,,None,,pu,1,sllip_013,61.3784716785,2C,auditory,2020_Jan_25_1447,
1C.wav,0,1,1,373,R,,,,,0,84,84,84,,,None,,pu,1,sllip_013,61.3784716785,2C,auditory,2020_Jan_25_1447,
2B.wav,0,2,1,374,R,,,,,0,85,85,85,,,None,,pu,1,sllip_013,61.3784716785,2C,auditory,2020_Jan_25_1447,
1C.wav,0,3,1,375,R,,,,,0,86,86,86,,,None,,pu,1,sllip_013,61.3784716785,2C,auditory,2020_Jan_25_1447,
4A.wav,0,1,1,376,R,,,,,0,87,87,87,,,None,,pu,1,sllip_013,61.3784716785,2C,auditory,2020_Jan_25_1447,
1A.wav,0,2,1,377,R,,,,,0,88,88,88,,,None,,pu,1,sllip_013,61.3784716785,2C,auditory,2020_Jan_25_1447,
3A.wav,0,3,1,378,R,,,,,0,89,89,89,,,None,,pu,1,sllip_013,61.3784716785,2C,auditory,2020_Jan_25_1447,
1B.wav,0,1,1,379,R,,,,,0,90,90,90,,,None,,pu,1,sllip_013,61.3784716785,2C,auditory,2020_Jan_25_1447,
1A.wav,0,2,1,380,R,,,,,0,91,91,91,,,None,,pu,1,sllip_013,61.3784716785,2C,auditory,2020_Jan_25_1447,
2C.wav,0,3,1,381,R,,,,,0,92,92,92,,,None,,pu,1,sllip_013,61.3784716785,2C,auditory,2020_Jan_25_1447,
3B.wav,0,1,1,382,R,,,,,0,93,93,93,,,None,,pu,1,sllip_013,61.3784716785,2C,auditory,2020_Jan_25_1447,
4C.wav,0,2,1,383,R,,,,,0,94,94,94,,,None,,pu,1,sllip_013,61.3784716785,2C,auditory,2020_Jan_25_1447,
1C.wav,0,3,1,384,R,,,,,0,95,95,95,,,None,,pu,1,sllip_013,61.3784716785,2C,auditory,2020_Jan_25_1447,
silence.wav,0,0,0,0,B,,,,,0,96,96,96,,,None,,pu,1,sllip_013,61.3784716785,2C,auditory,2020_Jan_25_1447,
silence.wav,0,0,0,0,B,,,,,0,97,97,97,,,None,,pu,1,sllip_013,61.3784716785,2C,auditory,2020_Jan_25_1447,
silence.wav,0,0,0,0,B,,,,,0,98,98,98,,,None,,pu,1,sllip_013,61.3784716785,2C,auditory,2020_Jan_25_1447,
silence.wav,0,0,0,0,B,,,,,0,99,99,99,,,None,,pu,1,sllip_013,61.3784716785,2C,auditory,2020_Jan_25_1447,
silence.wav,0,0,0,0,B,,,,,0,100,100,100,,,None,,pu,1,sllip_013,61.3784716785,2C,auditory,2020_Jan_25_1447,
silence.wav,0,0,0,0,B,,,,,0,101,101,101,,,None,,pu,1,sllip_013,61.3784716785,2C,auditory,2020_Jan_25_1447,
silence.wav,0,0,0,0,B,,,,,0,102,102,102,,,2,0.436418056488,pu,1,sllip_013,61.3784716785,2C,auditory,2020_Jan_25_1447,
silence.wav,0,0,0,0,B,,,,,0,103,103,103,,,2,0.44084405899,pu,1,sllip_013,61.3784716785,2C,auditory,2020_Jan_25_1447,
silence.wav,0,0,0,0,B,,,,,0,104,104,104,,,2,0.30890417099,pu,1,sllip_013,61.3784716785,2C,auditory,2020_Jan_25_1447,
silence.wav,0,0,0,0,B,,,,,0,105,105,105,,,2,0.190315008163,pu,1,sllip_013,61.3784716785,2C,auditory,2020_Jan_25_1447,
silence.wav,0,0,0,0,B,,,,,0,106,106,106,,,2,0.172433137894,pu,1,sllip_013,61.3784716785,2C,auditory,2020_Jan_25_1447,
silence.wav,0,0,0,0,B,,,,,0,107,107,107,,,None,,pu,1,sllip_013,61.3784716785,2C,auditory,2020_Jan_25_1447,
silence.wav,0,0,0,0,B,,,,,0,108,108,108,,,2,0.223284006119,pu,1,sllip_013,61.3784716785,2C,auditory,2020_Jan_25_1447,
